key_instructions.keys,key_instructions.rt,mouse_fixation_2.x,mouse_fixation_2.y,mouse_fixation_2.leftButton,mouse_fixation_2.midButton,mouse_fixation_2.rightButton,mouse_fixation_2.clicked_name,mouse_sentence_2.x,mouse_sentence_2.y,mouse_sentence_2.leftButton,mouse_sentence_2.midButton,mouse_sentence_2.rightButton,mouse_sentence_2.clicked_name,correct,target_position,distractor_position,mouse_x,mouse_y,mouse_time,mouse.x,mouse.y,mouse.leftButton,mouse.midButton,mouse.rightButton,mouse.time,mouse.clicked_name,trials_3.thisRepN,trials_3.thisTrialN,trials_3.thisN,trials_3.thisIndex,trials_3.ran,list,item,emotion,tense,sentence,target_x,target_y,distract_x,distract_y,participant,condition,date,expName,psychopyVersion,OS,frameRate,key_instructions_2.keys,key_instructions_2.rt,mouse_fixation.x,mouse_fixation.y,mouse_fixation.leftButton,mouse_fixation.midButton,mouse_fixation.rightButton,mouse_fixation.clicked_name,mouse_sentence.x,mouse_sentence.y,mouse_sentence.leftButton,mouse_sentence.midButton,mouse_sentence.rightButton,mouse_sentence.clicked_name,trials_2.thisRepN,trials_2.thisTrialN,trials_2.thisN,trials_2.thisIndex,trials_2.ran
space,1.854875,-0.0078125,0.010416667,1,0,0,fixation,-0.016927083,0,1,0,0,text_sentence,1,"[-0.16,0.33999999999999997]","[0.16,-0.33999999999999997]","[-0.016927083333333332,-0.016927083333333332,-0.016927083333333332,-0.016927083333333332,-0.016927083333333332,-0.016927083333333332,-0.016927083333333332,-0.016927083333333332,-0.016927083333333332,-0.016927083333333332,-0.016927083333333332,-0.016927083333333332,-0.016927083333333332,-0.016927083333333332,-0.016927083333333332,-0.016927083333333332,-0.016927083333333332,-0.016927083333333332,-0.016927083333333332,-0.016927083333333332,-0.016927083333333332,-0.016927083333333332,-0.016927083333333332,-0.016927083333333332,-0.016927083333333332,-0.016927083333333332,-0.016927083333333332,-0.016927083333333332,-0.016927083333333332,-0.016927083333333332,-0.016927083333333332,-0.016927083333333332,-0.016927083333333332,-0.016927083333333332,-0.016927083333333332,-0.016927083333333332,-0.016927083333333332,-0.016927083333333332,-0.016927083333333332,-0.016927083333333332,-0.016927083333333332,-0.016927083333333332,-0.016927083333333332,-0.016927083333333332,-0.016927083333333332,-0.016927083333333332,-0.016927083333333332,-0.016927083333333332,-0.016927083333333332,-0.016927083333333332,-0.016927083333333332,-0.016927083333333332,-0.016927083333333332,-0.016927083333333332,-0.016927083333333332,-0.016927083333333332,-0.016927083333333332,-0.016927083333333332,-0.01953125,-0.028645833333333332,-0.14583333333333334,-0.20052083333333334,-0.20572916666666666,-0.20572916666666666,-0.21223958333333334,-0.21354166666666666,-0.2109375,-0.18880208333333334,-0.16536458333333334,-0.15364583333333334,-0.14973958333333334,-0.1484375,-0.1484375,-0.1484375,-0.1484375]","[0,0,0,0,0,0,0,0,0,0,0,0,0,0,0,0,0,0,0,0,0,0,0,0,0,0,0,0,0,0,0,0,0,0,0,0,0,0,0,0,0,0,0,0,0,0,0,0,0,0,0,0,0,0,0,0,0,0,0,0.022135416666666668,0.2708333333333333,0.3684895833333333,0.3802083333333333,0.3802083333333333,0.40625,0.4127604166666667,0.4049479166666667,0.3815104166666667,0.3489583333333333,0.33203125,0.3268229166666667,0.3268229166666667,0.3255208333333333,0.3255208333333333,0.3255208333333333]","[0.0004099999787285924,0.05356999998912215,0.09084499999880791,0.12983499997062609,0.16934999998193234,0.208939999982249,0.2541600000113249,0.29031499999109656,0.3293249999987893,0.36877000000094995,0.40759499999694526,0.44658499996876344,0.48519500001566485,0.5243599999812432,0.5636800000211224,0.6026899999706075,0.6413000000175089,0.6803150000050664,0.7190800000098534,0.7588649999815971,0.7980099999695085,0.8363249999820255,0.8754649999900721,0.9160249999840744,0.9555350000155158,0.9943699999712408,1.0332000000053085,1.2303149999934249,1.2705650000134483,1.311249999969732,1.3513299999758601,1.391490000009071,1.4282799999928102,1.4672649999847636,1.5220550000085495,1.5623199999681674,1.6023399999830872,1.6401949999853969,1.6913599999970756,1.7406199999968521,1.778119999973569,1.8183899999712594,1.8584649999975227,1.899039999989327,1.9413749999948777,1.9815500000258908,2.018114999984391,2.0571249999920838,2.1076950000133365,2.1481650000205263,2.1846350000123493,2.223564999992959,2.2623899999889545,2.3011149999802,2.344059999973979,2.392969999986235,2.438804999983404,2.4756499999784864,2.5168500000145286,2.5574049999704584,2.6002299999818206,2.641029999998864,2.6817949999822304,2.721620000025723,2.762700000021141,2.804070000012871,2.8446700000204146,2.886609999986831,2.9301850000047125,2.9706950000254437,3.0107050000224262,3.051165000011679,3.091710000007879,3.1317050000070594,3.169999999983702]",-0.1484375,0.325520833,1,0,0,3.169645,target,0,0,0,0,1,prac,1,anxiety,past,I was up a height,-0.25,0.25,0.25,-0.25,R_3fO8cllJOtTYDKf,B,2021-03-07_07h51.11.062,experiment,2020.2.6,Win32,60,,,,,,,,,,,,,,,,,,,
,,-0.005208333,-0.005208333,1,0,0,fixation,0.001302083,-0.00390625,1,0,0,text_sentence,0,"[0.29,-0.21]","[-0.29,0.21]","[0.0013020833333333333,0.0013020833333333333,0.0013020833333333333,0.0013020833333333333,0.0013020833333333333,0.0013020833333333333,0.0013020833333333333,0.0013020833333333333,0.0013020833333333333,0.0013020833333333333,0.0013020833333333333,0.00390625,0.015625,0.01953125,0.022135416666666668,0.026041666666666668,0.032552083333333336,0.049479166666666664,0.06380208333333333,0.06380208333333333,0.06380208333333333,0.0625,0.0625,0.0625,0.0625,0.061197916666666664,0.05078125,0.033854166666666664,0.029947916666666668,0.029947916666666668,0.029947916666666668,0.028645833333333332,0.01953125,-0.08723958333333333,-0.20572916666666666,-0.21744791666666666,-0.22265625,-0.22265625,-0.22265625,-0.22265625,-0.22265625,-0.22265625,-0.22526041666666666,-0.24869791666666666,-0.2604166666666667,-0.2630208333333333,-0.2682291666666667,-0.2708333333333333,-0.2708333333333333,-0.2708333333333333,-0.2708333333333333,-0.2708333333333333,-0.26953125,-0.26953125,-0.26953125,-0.26953125,-0.2669270833333333,-0.265625,-0.265625,-0.2760416666666667,-0.2877604166666667,-0.2890625]","[-0.00390625,-0.00390625,-0.00390625,-0.00390625,-0.00390625,-0.00390625,-0.00390625,-0.00390625,-0.00390625,-0.00390625,-0.00390625,-0.005208333333333333,-0.016927083333333332,-0.024739583333333332,-0.028645833333333332,-0.037760416666666664,-0.0546875,-0.08333333333333333,-0.09765625,-0.09765625,-0.09765625,-0.09765625,-0.09635416666666667,-0.09635416666666667,-0.09635416666666667,-0.09635416666666667,-0.08203125,-0.061197916666666664,-0.057291666666666664,-0.055989583333333336,-0.0546875,-0.0546875,-0.05078125,-0.0013020833333333333,0.09114583333333333,0.11848958333333333,0.12369791666666667,0.12369791666666667,0.12369791666666667,0.12369791666666667,0.12369791666666667,0.12369791666666667,0.12369791666666667,0.14973958333333334,0.16666666666666666,0.17057291666666666,0.171875,0.17578125,0.17578125,0.17838541666666666,0.17838541666666666,0.17838541666666666,0.17838541666666666,0.17447916666666666,0.171875,0.17057291666666666,0.16666666666666666,0.1640625,0.1640625,0.19140625,0.22135416666666666,0.22916666666666666]","[0.00015000003622844815,0.05328500003088266,0.0928249999997206,0.1304000000236556,0.1692449999973178,0.20842500001890585,0.24747500004014,0.28629499999806285,0.32583500002510846,0.3649250000016764,0.4036100000375882,0.4431450000265613,0.48748500004876405,0.5288000000291504,0.5700000000069849,0.6110450000269338,0.6517250000033528,0.6920550000504591,0.7345350000541657,0.7745400000130758,0.8113600000506267,0.8504450000473298,0.9044800000265241,0.9446549999993294,0.9810850000358187,1.020775000040885,1.0717450000229292,1.1133400000398979,1.1554000000469387,1.1954800000530668,1.2354050000431016,1.2761450000107288,1.3186900000437163,1.3601400000043213,1.4014400000451133,1.4421450000372715,1.4826600000378676,1.5223550000227988,1.5592600000090897,1.5984900000039488,1.637395000027027,1.6760950000025332,1.7161800000467338,1.7732550000073388,1.8142300000181422,1.8551200000219978,1.8961250000284053,1.937625000020489,1.9777950000134297,2.0194250000058673,2.059450000000652,2.1070550000295043,2.146535000007134,2.190485000028275,2.231240000051912,2.271869999996852,2.3128450000076555,2.3546300000161864,2.3948350000428036,2.4324450000422075,2.49114500003634,2.532955000002403]",-0.270833333,0.178385417,1,0,0,2.019315,distractor,0,1,1,3,1,prac,4,depress,future,Below the surface will be sadness ,0.25,-0.25,-0.25,0.25,R_3fO8cllJOtTYDKf,B,2021-03-07_07h51.11.062,experiment,2020.2.6,Win32,60,,,,,,,,,,,,,,,,,,,
,,-0.001302083,-0.001302083,1,0,0,fixation,-0.005208333,-0.005208333,1,0,0,text_sentence,0,"[-0.19,-0.19]","[0.19,0.19]","[-0.005208333333333333,-0.005208333333333333,-0.005208333333333333,-0.005208333333333333,-0.005208333333333333,-0.005208333333333333,-0.005208333333333333,0.016927083333333332,0.15234375,0.21354166666666666,0.22395833333333334,0.22395833333333334,0.22395833333333334,0.22395833333333334,0.22395833333333334,0.22395833333333334,0.22395833333333334,0.22395833333333334,0.22395833333333334,0.22395833333333334,0.22395833333333334,0.22395833333333334,0.22395833333333334,0.22395833333333334,0.22395833333333334,0.22395833333333334,0.22395833333333334,0.22395833333333334,0.22395833333333334,0.22395833333333334,0.22395833333333334,0.22395833333333334,0.22395833333333334,0.22395833333333334,0.22395833333333334,0.22395833333333334,0.20052083333333334,0.13671875,0.13671875,0.13671875,0.13671875,0.13541666666666666,0.13411458333333334,0.1875,0.2265625,0.2265625,0.2265625,0.2265625,0.22135416666666666,0.20703125,0.19921875,0.19791666666666666]","[-0.005208333333333333,-0.005208333333333333,-0.005208333333333333,-0.005208333333333333,-0.005208333333333333,-0.005208333333333333,-0.005208333333333333,-0.020833333333333332,-0.12630208333333334,-0.19270833333333334,-0.20833333333333334,-0.20833333333333334,-0.20833333333333334,-0.20833333333333334,-0.20833333333333334,-0.20833333333333334,-0.20833333333333334,-0.20833333333333334,-0.20833333333333334,-0.20833333333333334,-0.20833333333333334,-0.20833333333333334,-0.20833333333333334,-0.20833333333333334,-0.20833333333333334,-0.20833333333333334,-0.20833333333333334,-0.20833333333333334,-0.20833333333333334,-0.20833333333333334,-0.20833333333333334,-0.20833333333333334,-0.20833333333333334,-0.20833333333333334,-0.20833333333333334,-0.20703125,-0.14192708333333334,0.20572916666666666,0.23567708333333334,0.25,0.2786458333333333,0.2981770833333333,0.29296875,0.19270833333333334,0.1328125,0.13151041666666666,0.13411458333333334,0.13802083333333334,0.14713541666666666,0.16666666666666666,0.17708333333333334,0.17708333333333334]","[0.0001700000138953328,0.039489999995566905,0.07592000003205612,0.11650500004179776,0.16156500001670793,0.19755500002065673,0.23634000000311062,0.2760349999880418,0.32754000002751127,0.36848500004271045,0.4086100000422448,0.44846500002313405,0.48446500004502013,0.5233400000142865,0.5625700000091456,0.6019100000266917,0.6406950000091456,0.6795750000164844,0.7184750000014901,0.7573050000355579,0.7965500000282191,0.8357650000252761,0.8747150000417605,0.9138050000183284,0.952835000003688,0.9919600000139326,1.0311750000109896,1.0784050000365824,1.1191100000287406,1.1608100000303239,1.200780000013765,1.2372750000213273,1.2764000000315718,1.315230000007432,1.3608150000218302,1.401769999996759,1.4426450000028126,1.4833750000107102,1.5240150000317954,1.5648250000085682,1.6069550000247546,1.6469250000081956,1.6874350000289269,1.7283700000261888,1.7688450000132434,1.8095500000054017,1.8502399999997579,1.8910299999988638,1.9317650000448339,1.9723150000208989,2.0136100000236183,2.0547350000124425]",0.197916667,0.177083333,1,0,0,2.054605,distractor,0,2,2,2,1,prac,3,depress,past,Below the surface was sadness ,-0.25,-0.25,0.25,0.25,R_3fO8cllJOtTYDKf,B,2021-03-07_07h51.11.062,experiment,2020.2.6,Win32,60,,,,,,,,,,,,,,,,,,,
,,-0.001302083,0.00390625,1,0,0,fixation,-0.002604167,-0.002604167,1,0,0,text_sentence,1,"[0.27,0.27]","[-0.27,-0.27]","[-0.0026041666666666665,-0.0026041666666666665,-0.0026041666666666665,-0.0026041666666666665,-0.0026041666666666665,-0.0026041666666666665,-0.0026041666666666665,-0.0026041666666666665,-0.0026041666666666665,-0.005208333333333333,-0.01171875,-0.018229166666666668,-0.01953125,-0.01953125,-0.01953125,-0.01953125,-0.01953125,-0.022135416666666668,-0.026041666666666668,-0.02734375,-0.02734375,-0.02734375,-0.02734375,-0.02734375,-0.02734375,-0.02734375,-0.02734375,-0.02734375,-0.02734375,-0.02734375,-0.02734375,-0.02734375,-0.02734375,-0.026041666666666668,0.11848958333333333,0.16145833333333334,0.16927083333333334,0.16927083333333334,0.16927083333333334,0.16927083333333334,0.16927083333333334,0.16927083333333334,0.16927083333333334,0.2565104166666667,0.2942708333333333,0.3033854166666667,0.3033854166666667,0.3033854166666667,0.2994791666666667,0.2604166666666667,0.24869791666666666,0.24869791666666666,0.25,0.25390625,0.2565104166666667,0.2591145833333333,0.2604166666666667,0.2604166666666667]","[-0.0026041666666666665,-0.00390625,-0.00390625,-0.00390625,-0.00390625,-0.00390625,-0.00390625,-0.00390625,-0.00390625,-0.00390625,-0.0078125,-0.009114583333333334,-0.009114583333333334,-0.009114583333333334,-0.009114583333333334,-0.009114583333333334,-0.009114583333333334,-0.0078125,-0.005208333333333333,-0.00390625,-0.00390625,-0.00390625,-0.00390625,-0.00390625,-0.00390625,-0.00390625,-0.00390625,-0.00390625,-0.00390625,-0.00390625,-0.005208333333333333,-0.005208333333333333,-0.005208333333333333,0,0.049479166666666664,0.03515625,0.033854166666666664,0.033854166666666664,0.033854166666666664,0.033854166666666664,0.033854166666666664,0.033854166666666664,0.049479166666666664,0.2864583333333333,0.34765625,0.3567708333333333,0.3567708333333333,0.3567708333333333,0.3385416666666667,0.22135416666666666,0.1953125,0.1953125,0.20963541666666666,0.22786458333333334,0.23567708333333334,0.2421875,0.24348958333333334,0.24479166666666666]","[0.00011500000255182385,0.057994999981019646,0.09914999996544793,0.13907500001369044,0.1787499999627471,0.21489499998278916,0.25393999996595085,0.2930799999739975,0.33218999998643994,0.37179499998455867,0.42573499999707565,0.466565000009723,0.5072449999861419,0.5471699999761768,0.5832449999870732,0.6218799999915063,0.6610050000017509,0.7009700000053272,0.7597149999928661,0.8010849999845959,0.8423699999693781,0.8781999999773689,0.9169249999686144,0.9557299999869429,0.9948749999748543,1.034270000003744,1.091260000015609,1.1327900000032969,1.1715799999656156,1.211829999985639,1.2495749999652617,1.2932849999633618,1.3298799999756739,1.3694549999781884,1.4277700000093319,1.4681799999671057,1.5090249999775551,1.55048999999417,1.5898049999959767,1.629979999968782,1.66988499998115,1.7065500000026077,1.7465899999951944,1.7953149999957532,1.838210000016261,1.878870000015013,1.9183300000149757,1.9550249999738298,1.9947350000147708,2.0456600000034086,2.086169999965932,2.1261199999717064,2.163590000011027,2.212279999977909,2.2529649999924004,2.294164999970235,2.3344649999635294,2.3756399999838322]",0.118489583,0.049479167,1,0,0,1.42767,target,0,3,3,1,1,prac,2,anxiety,future,I will be up a height ,0.25,0.25,-0.25,-0.25,R_3fO8cllJOtTYDKf,B,2021-03-07_07h51.11.062,experiment,2020.2.6,Win32,60,,,,,,,,,,,,,,,,,,,
,,-0.005208333,0.009114583,1,0,0,fixation,-0.005208333,-0.0078125,1,0,0,text_sentence,0,"[0.31,-0.19]","[-0.31,0.19]","[-0.005208333333333333,-0.005208333333333333,-0.005208333333333333,-0.005208333333333333,-0.005208333333333333,-0.005208333333333333,-0.005208333333333333,-0.005208333333333333,-0.005208333333333333,-0.005208333333333333,-0.005208333333333333,-0.0078125,-0.015625,-0.037760416666666664,-0.08463541666666667,-0.09895833333333333,-0.1015625,-0.1015625,-0.10026041666666667,-0.09635416666666667,-0.09635416666666667,-0.09765625,-0.09895833333333333,-0.09895833333333333,-0.09895833333333333,-0.09895833333333333,-0.09895833333333333,-0.09895833333333333,-0.09895833333333333,-0.10026041666666667,-0.12760416666666666,-0.15234375,-0.18619791666666666,-0.234375,-0.26171875,-0.2747395833333333,-0.2955729166666667,-0.3111979166666667,-0.31640625,-0.31640625,-0.31640625,-0.3151041666666667,-0.3111979166666667,-0.3111979166666667,-0.3111979166666667,-0.3125,-0.3125,-0.3125,-0.3125]","[-0.0078125,-0.0078125,-0.0078125,-0.0078125,-0.0078125,-0.0078125,-0.0078125,-0.0078125,-0.0078125,-0.0078125,-0.009114583333333334,-0.016927083333333332,-0.029947916666666668,-0.055989583333333336,-0.08333333333333333,-0.08723958333333333,-0.0859375,-0.061197916666666664,-0.032552083333333336,0.01171875,0.046875,0.05859375,0.059895833333333336,0.059895833333333336,0.059895833333333336,0.059895833333333336,0.059895833333333336,0.059895833333333336,0.059895833333333336,0.05859375,0.032552083333333336,0.020833333333333332,0.02734375,0.07942708333333333,0.16796875,0.17708333333333334,0.16145833333333334,0.14583333333333334,0.14322916666666666,0.14322916666666666,0.15755208333333334,0.16666666666666666,0.17838541666666666,0.1796875,0.17317708333333334,0.17057291666666666,0.16666666666666666,0.16536458333333334,0.16276041666666666]","[0.000265000038780272,0.04841000004671514,0.0844300000462681,0.12367000000085682,0.18245500000193715,0.21864000003552064,0.25732000003336,0.29597500001545995,0.3346200000378303,0.3737150000524707,0.4132350000436418,0.467160000000149,0.5074050000403076,0.54841500002658,0.5887800000491552,0.6296399999991991,0.6702100000111386,0.7119750000420026,0.7540800000424497,0.7946100000408478,0.8345250000129454,0.875060000049416,0.9154100000159815,0.9555450000334531,0.9914700000081211,1.0299650000524707,1.0835550000192598,1.1234300000360236,1.1602000000420958,1.2003050000057556,1.2516750000067987,1.292200000025332,1.3328900000196882,1.3740700000198558,1.415160000033211,1.4557950000162236,1.4966150000109337,1.5368400000152178,1.5771050000330433,1.6173650000127964,1.659395000024233,1.6996800000197254,1.7419700000318699,1.7818450000486337,1.8224950000294484,1.8633050000062212,1.9036900000064634,1.9445550000527874,1.985834999999497]",-0.31640625,0.157552083,1,0,0,1.65917,distractor,0,4,4,5,1,prac,6,neutral,present,He invested a lot in the relationship,0.25,-0.25,-0.25,0.25,R_3fO8cllJOtTYDKf,B,2021-03-07_07h51.11.062,experiment,2020.2.6,Win32,60,,,,,,,,,,,,,,,,,,,
,,0.001302083,0,1,0,0,fixation,0,0,1,0,0,text_sentence,0,"[-0.22,0.28]","[0.22,-0.28]","[0,0,0,0,0,0,0,0,0,0,0,0,0,0.0078125,0.11328125,0.15104166666666666,0.16927083333333334,0.2109375,0.2265625,0.23307291666666666,0.234375,0.23307291666666666,0.23046875,0.22786458333333334,0.2265625,0.2265625]","[0,0,0,0,0,0,0,0,0,0,0,0,-0.0026041666666666665,-0.018229166666666668,-0.11197916666666667,-0.15364583333333334,-0.1796875,-0.2265625,-0.23697916666666666,-0.23828125,-0.23828125,-0.24088541666666666,-0.24479166666666666,-0.24869791666666666,-0.2552083333333333,-0.2578125]","[0.00017499999376013875,0.04590999998617917,0.08224999997764826,0.1211100000073202,0.16201000002911314,0.21357500000158325,0.2556650000042282,0.29190499999094754,0.33046000002650544,0.3692400000290945,0.4082850000122562,0.44696500001009554,0.48665999999502674,0.5317200000281446,0.5726300000096671,0.6134399999864399,0.6539150000317022,0.6943549999850802,0.7350849999929778,0.7756850000005215,0.8162550000124611,0.8567950000287965,0.8983599999919534,0.9392700000316836,0.9806300000054762,1.0216549999895506]",0.2265625,-0.2578125,1,0,0,1.02149,distractor,0,5,5,4,1,prac,5,neutral,present,I like to bury my head in a book,-0.25,0.25,0.25,-0.25,R_3fO8cllJOtTYDKf,B,2021-03-07_07h51.11.062,experiment,2020.2.6,Win32,60,,,,,,,,,,,,,,,,,,,
,,,,,,,,,,,,,,0,"[-0.19,-0.19]","[0.19,0.19]","[-0.006510416666666667,-0.005208333333333333,-0.005208333333333333,-0.005208333333333333,-0.005208333333333333,-0.005208333333333333,-0.005208333333333333,-0.005208333333333333,-0.005208333333333333,-0.006510416666666667,-0.006510416666666667,-0.006510416666666667,-0.006510416666666667,-0.00390625,0.015625,0.049479166666666664,0.08723958333333333,0.12630208333333334,0.15885416666666666,0.16536458333333334,0.16536458333333334,0.20572916666666666,0.21875,0.21875,0.21875,0.21614583333333334,0.21223958333333334,0.203125,0.19010416666666666,0.18229166666666666,0.16536458333333334,0.15364583333333334,0.14322916666666666,0.1328125,0.12239583333333333,0.12239583333333333,0.12890625,0.1328125,0.13411458333333334,0.13411458333333334,0.14583333333333334,0.14713541666666666,0.14713541666666666,0.1484375,0.14973958333333334,0.14973958333333334,0.14973958333333334,0.14973958333333334,0.1484375,0.1484375,0.1484375,0.15625,0.16796875,0.16927083333333334,0.17057291666666666,0.17057291666666666,0.17057291666666666,0.17057291666666666,0.17057291666666666,0.17057291666666666,0.16927083333333334,0.16927083333333334]","[-0.0078125,-0.0078125,-0.0078125,-0.0078125,-0.0078125,-0.009114583333333334,-0.009114583333333334,-0.010416666666666666,-0.010416666666666666,-0.005208333333333333,-0.0013020833333333333,-0.0013020833333333333,-0.0013020833333333333,-0.0013020833333333333,-0.005208333333333333,-0.022135416666666668,-0.057291666666666664,-0.11197916666666667,-0.171875,-0.1875,-0.19010416666666666,-0.2643229166666667,-0.2864583333333333,-0.2864583333333333,-0.2838541666666667,-0.2760416666666667,-0.2591145833333333,-0.22916666666666666,-0.17838541666666666,-0.14973958333333334,-0.09244791666666667,-0.05859375,-0.01953125,0.028645833333333332,0.12239583333333333,0.15234375,0.17317708333333334,0.1796875,0.1796875,0.17317708333333334,0.15364583333333334,0.15104166666666666,0.15104166666666666,0.15625,0.16015625,0.16015625,0.15885416666666666,0.15364583333333334,0.15234375,0.15234375,0.15234375,0.16015625,0.17057291666666666,0.171875,0.171875,0.171875,0.17057291666666666,0.17057291666666666,0.17057291666666666,0.16796875,0.16796875,0.16796875]","[0.00014000001829117537,0.03966499998932704,0.08072999998694286,0.12009000004036352,0.15597500000149012,0.19534000003477558,0.24978499999269843,0.286690000037197,0.3323250000248663,0.36929000000236556,0.416945000004489,0.45711000001756474,0.4933300000266172,0.5326150000328198,0.5842249999986961,0.6267750000115484,0.6668599999975413,0.7076100000413135,0.7476299999980256,0.7883950000395998,0.8293350000167266,0.8695650000008754,0.910135000012815,0.949640000006184,0.9865850000060163,1.0348150000208989,1.0758500000229105,1.1163599999854341,1.1563650000025518,1.1975950000341982,1.2387950000120327,1.2794149999972433,1.319870000006631,1.3602950000204146,1.4015950000029989,1.442220000026282,1.4831450000056066,1.5236600000062026,1.5639850000152364,1.6059900000109337,1.6481650000205263,1.6882150000310503,1.727729999984149,1.765415000030771,1.8199050000403076,1.8600399999995716,1.8978450000286102,1.9532650000182912,1.9935399999958463,2.03369000001112,2.0704099999857135,2.110485000011977,2.170205000031274,2.2103750000242144,2.2521249999990687,2.2913750000298023,2.3295149999903515,2.386029999994207,2.4259750000201166,2.4640849999850616,2.521050000039395,2.56115000002319]",0.1484375,0.15625,1,0,0,1.76532,distractor,,,,,,2,19,depression,past,I was sucked into a black hole ,-0.25,-0.25,0.25,0.25,R_3fO8cllJOtTYDKf,B,2021-03-07_07h51.11.062,experiment,2020.2.6,Win32,60,space,3.32429,-0.006510417,-0.006510417,1,0,0,fixation,-0.006510417,-0.0078125,1,0,0,text_sentence,0,0,0,18,1
,,,,,,,,,,,,,,0,"[0.33999999999999997,-0.16]","[-0.33999999999999997,0.16]","[0,0,0,0,0,0,0,0,0,0,0.00390625,0.01171875,0.013020833333333334,0.006510416666666667,-0.01171875,-0.018229166666666668,-0.018229166666666668,-0.018229166666666668,-0.018229166666666668,-0.018229166666666668,-0.029947916666666668,-0.24869791666666666,-0.3098958333333333,-0.3190104166666667,-0.3190104166666667,-0.3203125,-0.3216145833333333,-0.3229166666666667,-0.3255208333333333,-0.3307291666666667]","[-0.009114583333333334,-0.009114583333333334,-0.009114583333333334,-0.009114583333333334,-0.009114583333333334,-0.009114583333333334,-0.009114583333333334,-0.009114583333333334,-0.009114583333333334,-0.005208333333333333,0.0078125,0.024739583333333332,0.02734375,0.026041666666666668,0.024739583333333332,0.028645833333333332,0.028645833333333332,0.028645833333333332,0.028645833333333332,0.028645833333333332,0.03515625,0.15364583333333334,0.18489583333333334,0.19270833333333334,0.19661458333333334,0.19921875,0.19921875,0.19010416666666666,0.18098958333333334,0.16666666666666666]","[0.00017499999376013875,0.039515000011306256,0.07620499999029562,0.13320999999996275,0.16925500001525506,0.2080149999819696,0.26987999997800216,0.31067999999504536,0.3474500000011176,0.3876450000097975,0.4352799999760464,0.47583499999018386,0.5159700000076555,0.556380000023637,0.5975849999813363,0.6382350000203587,0.6795200000051409,0.7199849999742582,0.7597850000020117,0.7963599999784492,0.8355899999733083,0.8858500000205822,0.9264400000101887,0.9673600000096485,1.0084550000028685,1.0492150000063702,1.0895199999795295,1.1303099999786355,1.1704499999759719,1.2121299999998882]",-0.330729167,0.166666667,1,0,0,1.21198,distractor,,,,,,2,32,depression,future,I would be down in the dumps ,0.25,-0.25,-0.25,0.25,R_3fO8cllJOtTYDKf,B,2021-03-07_07h51.11.062,experiment,2020.2.6,Win32,60,,,-0.001302083,-0.006510417,1,0,0,fixation,0,-0.009114583,1,0,0,text_sentence,0,1,1,31,1
,,,,,,,,,,,,,,1,"[0.3,0.3]","[-0.3,-0.3]","[-0.00390625,-0.00390625,-0.00390625,-0.00390625,-0.00390625,-0.00390625,-0.010416666666666666,-0.08723958333333333,-0.23177083333333334,-0.2552083333333333,-0.2526041666666667,-0.2526041666666667,-0.2526041666666667,-0.2526041666666667,-0.2526041666666667,-0.24479166666666666,-0.07421875,0.0026041666666666665,0.024739583333333332,0.024739583333333332,0.024739583333333332,0.024739583333333332,0.024739583333333332,0.024739583333333332,0.10546875,0.25390625,0.26953125,0.26953125,0.26953125,0.26953125,0.2682291666666667,0.2682291666666667,0.2682291666666667,0.2682291666666667,0.2682291666666667,0.2682291666666667,0.2682291666666667,0.2682291666666667,0.2682291666666667,0.2734375,0.2864583333333333,0.2877604166666667]","[0.0013020833333333333,0.0013020833333333333,0.0013020833333333333,0.0013020833333333333,0.0013020833333333333,0.0013020833333333333,0.0013020833333333333,0.010416666666666666,0.0546875,0.08854166666666667,0.10807291666666667,0.10807291666666667,0.10807291666666667,0.10807291666666667,0.10807291666666667,0.11197916666666667,0.19921875,0.20963541666666666,0.20963541666666666,0.20963541666666666,0.20963541666666666,0.20963541666666666,0.20963541666666666,0.20963541666666666,0.265625,0.3203125,0.31640625,0.3151041666666667,0.3111979166666667,0.3098958333333333,0.30859375,0.30859375,0.3072916666666667,0.3072916666666667,0.3072916666666667,0.3072916666666667,0.3072916666666667,0.3072916666666667,0.3072916666666667,0.3072916666666667,0.3033854166666667,0.3020833333333333]","[0.0001799999736249447,0.03944500000216067,0.07699499995214865,0.13240499998209998,0.16881999996257946,0.2080199999618344,0.2669400000013411,0.30734999995911494,0.3483699999633245,0.3887899999972433,0.4290599999949336,0.46885499998461455,0.5090749999508262,0.5458899999503046,0.5846899999887682,0.6242199999978766,0.6843099999823608,0.7251649999525398,0.7651399999740534,0.8049250000040047,0.8416049999650568,0.8805350000038743,0.9197849999764003,0.958844999957364,0.998444999975618,1.0517649999819696,1.0920599999953993,1.1328949999879114,1.173934999969788,1.2154999999911524,1.257984999974724,1.2972099999897182,1.335144999960903,1.3852549999719486,1.4250499999616295,1.461414999968838,1.5019650000031106,1.541434999962803,1.584065000002738,1.6236400000052527,1.6693699999595992,1.710419999959413]",0.268229167,0.30859375,1,0,0,1.257825,target,,,,,,2,14,anxiety,future,I would be struck down by fear ,0.25,0.25,-0.25,-0.25,R_3fO8cllJOtTYDKf,B,2021-03-07_07h51.11.062,experiment,2020.2.6,Win32,60,,,-0.00390625,0.00390625,1,0,0,fixation,-0.00390625,0.001302083,1,0,0,text_sentence,0,2,2,13,1
,,,,,,,,,,,,,,0,"[0.3,-0.2]","[-0.3,0.2]","[0.005208333333333333,0.005208333333333333,0.005208333333333333,0.005208333333333333,0.005208333333333333,0.005208333333333333,0.005208333333333333,0.005208333333333333,0.005208333333333333,0.005208333333333333,0.005208333333333333,0.00390625,-0.024739583333333332,-0.2721354166666667,-0.3359375,-0.34375,-0.34375,-0.34375,-0.34375,-0.3385416666666667,-0.3020833333333333,-0.28515625,-0.2838541666666667,-0.2838541666666667,-0.2903645833333333,-0.2955729166666667,-0.2942708333333333]","[-0.010416666666666666,-0.010416666666666666,-0.010416666666666666,-0.010416666666666666,-0.010416666666666666,-0.010416666666666666,-0.010416666666666666,-0.010416666666666666,-0.010416666666666666,-0.010416666666666666,-0.010416666666666666,-0.010416666666666666,0.0013020833333333333,0.17578125,0.22265625,0.23567708333333334,0.23958333333333334,0.23567708333333334,0.23567708333333334,0.23828125,0.22786458333333334,0.1953125,0.18229166666666666,0.1796875,0.18489583333333334,0.19270833333333334,0.1953125]","[0.0001799999736249447,0.04703499999595806,0.08363499998813495,0.13080499996431172,0.16703999997116625,0.20595499995397404,0.24490999995032325,0.28431499999715015,0.3322799999732524,0.3720599999651313,0.4080299999914132,0.4471299999859184,0.4866249999613501,0.5323249999783002,0.5732549999956973,0.6144549999735318,0.654744999948889,0.6952799999853596,0.7352549999486655,0.7725599999539554,0.8166949999867938,0.8571549999760464,0.8987799999886192,0.9391299999551848,0.9798849999788217,1.0206400000024587,1.062694999971427]",-0.294270833,0.1953125,1,0,0,1.06255,distractor,,,,,,2,22,depression,future,Dark clouds will bear down on me ,0.25,-0.25,-0.25,0.25,R_3fO8cllJOtTYDKf,B,2021-03-07_07h51.11.062,experiment,2020.2.6,Win32,60,,,0.005208333,-0.010416667,1,0,0,fixation,0.005208333,-0.010416667,1,0,0,text_sentence,0,3,3,21,1
,,,,,,,,,,,,,,1,"[0.28,0.28]","[-0.28,-0.28]","[-0.009114583333333334,-0.009114583333333334,-0.009114583333333334,-0.009114583333333334,-0.009114583333333334,-0.009114583333333334,-0.009114583333333334,-0.009114583333333334,-0.009114583333333334,-0.009114583333333334,-0.009114583333333334,-0.0234375,-0.16927083333333334,-0.22395833333333334,-0.234375,-0.234375,-0.23307291666666666,-0.22916666666666666,-0.21875,-0.18619791666666666,-0.125,-0.11197916666666667,-0.11197916666666667,-0.11197916666666667,-0.11197916666666667,-0.11197916666666667,-0.11197916666666667,-0.11197916666666667,-0.09765625,0.0625,0.11458333333333333,0.14713541666666666,0.15104166666666666,0.15494791666666666,0.16276041666666666,0.171875,0.18619791666666666,0.19401041666666666,0.19791666666666666,0.20572916666666666,0.21614583333333334,0.22135416666666666,0.2265625,0.23177083333333334,0.23177083333333334,0.23177083333333334,0.23177083333333334,0.23177083333333334,0.23177083333333334,0.23177083333333334,0.23177083333333334,0.23177083333333334,0.23567708333333334,0.2552083333333333,0.2643229166666667,0.26953125,0.26953125]","[-0.0026041666666666665,-0.0026041666666666665,-0.0026041666666666665,-0.0026041666666666665,-0.0026041666666666665,-0.0026041666666666665,-0.0026041666666666665,-0.0026041666666666665,-0.0026041666666666665,-0.0026041666666666665,-0.0026041666666666665,0,0.11458333333333333,0.171875,0.19010416666666666,0.203125,0.21223958333333334,0.21744791666666666,0.21744791666666666,0.20833333333333334,0.15755208333333334,0.14453125,0.14192708333333334,0.14192708333333334,0.14192708333333334,0.14192708333333334,0.14192708333333334,0.14192708333333334,0.15885416666666666,0.2552083333333333,0.25390625,0.23828125,0.23697916666666666,0.24609375,0.26171875,0.26953125,0.2734375,0.2786458333333333,0.2786458333333333,0.2760416666666667,0.2708333333333333,0.2708333333333333,0.2721354166666667,0.2760416666666667,0.2760416666666667,0.2760416666666667,0.2760416666666667,0.2760416666666667,0.2760416666666667,0.2760416666666667,0.2760416666666667,0.2760416666666667,0.2786458333333333,0.29296875,0.2955729166666667,0.2955729166666667,0.29296875]","[0.0001550000160932541,0.05134499998530373,0.08743000001413748,0.13441499997861683,0.17397499998332933,0.2103899999638088,0.24910000001545995,0.2879799999645911,0.32680499996058643,0.3653850000118837,0.40437000000383705,0.4440999999642372,0.5033699999912642,0.5441400000127032,0.5864699999801815,0.6269800000009127,0.6678299999912269,0.708379999967292,0.7489499999792315,0.7901149999815971,0.8311450000037439,0.8719799999962561,0.9122900000074878,0.9518099999986589,0.9878899999894202,1.026514999975916,1.0861349999904633,1.122594999964349,1.1625749999657273,1.2213099999935366,1.2631399999954738,1.303734999964945,1.3440449999761768,1.3846950000151992,1.4255999999586493,1.4665200000163168,1.507259999983944,1.5487599999760278,1.5904650000156835,1.632019999960903,1.672069999971427,1.7133649999741465,1.7529699999722652,1.7944949999800883,1.8343699999968521,1.8746899999678135,1.9113999999826774,1.9502549999742769,1.9892399999662302,2.0383900000015274,2.0749599999981,2.1138449999853037,2.153935000009369,2.2064050000044517,2.2473299999837764,2.2879899999825284,2.3294199999654666]",0.221354167,0.270833333,1,0,0,1.713225,target,,,,,,2,46,neutral,present,Made it out by the skin of my teeth ,0.25,0.25,-0.25,-0.25,R_3fO8cllJOtTYDKf,B,2021-03-07_07h51.11.062,experiment,2020.2.6,Win32,60,,,-0.006510417,-0.001302083,1,0,0,fixation,-0.009114583,-0.002604167,1,0,0,text_sentence,0,4,4,45,1
,,,,,,,,,,,,,,1,"[0.26,-0.24]","[-0.26,0.24]","[0.00390625,0.00390625,0.00390625,0.00390625,0.00390625,0.00390625,0.00390625,0.00390625,0.00390625,0.00390625,0.00390625,0.00390625,0.036458333333333336,0.18229166666666666,0.20052083333333334,0.20052083333333334,0.20442708333333334,0.21354166666666666,0.2265625,0.2421875,0.24348958333333334,0.24348958333333334,0.24348958333333334,0.24348958333333334,0.24348958333333334,0.24348958333333334,0.24348958333333334,0.24348958333333334,0.24348958333333334,0.24348958333333334,0.24348958333333334,0.24348958333333334,0.24348958333333334,0.24348958333333334,0.24348958333333334,0.24348958333333334,0.24348958333333334,0.24348958333333334,0.24348958333333334,0.24348958333333334,0.24348958333333334]","[-0.005208333333333333,-0.005208333333333333,-0.005208333333333333,-0.005208333333333333,-0.005208333333333333,-0.005208333333333333,-0.005208333333333333,-0.005208333333333333,-0.005208333333333333,-0.005208333333333333,-0.005208333333333333,-0.005208333333333333,-0.03515625,-0.13541666666666666,-0.14453125,-0.14583333333333334,-0.15104166666666666,-0.15755208333333334,-0.16796875,-0.18489583333333334,-0.19270833333333334,-0.19401041666666666,-0.1953125,-0.20052083333333334,-0.20442708333333334,-0.20703125,-0.20703125,-0.20703125,-0.20703125,-0.20703125,-0.20703125,-0.20703125,-0.20703125,-0.20703125,-0.20703125,-0.20703125,-0.20963541666666666,-0.21875,-0.22526041666666666,-0.22916666666666666,-0.22916666666666666]","[0.00020000000949949026,0.058744999987538904,0.09846000000834465,0.13445000001229346,0.17323499999474734,0.21198500000173226,0.25669499998912215,0.2966299999970943,0.33323499996913597,0.3726299999980256,0.4128449999843724,0.45258499996270984,0.49199499998940155,0.5433949999860488,0.5839649999979883,0.6243200000026263,0.6652400000020862,0.7067299999762326,0.7476599999936298,0.7881199999828823,0.8284850000054576,0.8687950000166893,0.9091199999675155,0.949689999979455,0.9907399999792688,1.0313249999890104,1.0727649999898858,1.109215000004042,1.147884999983944,1.1876749999937601,1.2438449999899603,1.2835750000085682,1.3202750000054948,1.3593450000043958,1.3994999999995343,1.438959999999497,1.4786549999844283,1.52791000000434,1.5684999999939464,1.6091250000172295,1.6499799999874085]",0.243489583,-0.20703125,1,0,0,1.187495,target,,,,,,2,44,neutral,present,The comment cut close to the bone ,0.25,-0.25,-0.25,0.25,R_3fO8cllJOtTYDKf,B,2021-03-07_07h51.11.062,experiment,2020.2.6,Win32,60,,,0.005208333,-0.005208333,1,0,0,fixation,0.00390625,-0.005208333,1,0,0,text_sentence,0,5,5,43,1
,,,,,,,,,,,,,,0,"[0.35,-0.15]","[-0.35,0.15]","[-0.00390625,-0.00390625,-0.00390625,-0.00390625,-0.00390625,-0.00390625,-0.005208333333333333,-0.014322916666666666,-0.12109375,-0.1875,-0.20442708333333334,-0.20703125,-0.20833333333333334,-0.22005208333333334,-0.2942708333333333,-0.34765625,-0.3697916666666667,-0.37109375,-0.3684895833333333,-0.3684895833333333,-0.3658854166666667,-0.3645833333333333,-0.3645833333333333,-0.3606770833333333,-0.35546875,-0.3528645833333333,-0.3528645833333333,-0.3528645833333333]","[-0.0013020833333333333,-0.0013020833333333333,-0.0013020833333333333,-0.0013020833333333333,-0.0013020833333333333,-0.0013020833333333333,-0.0013020833333333333,0.00390625,0.07161458333333333,0.10286458333333333,0.11588541666666667,0.11848958333333333,0.11588541666666667,0.11458333333333333,0.09635416666666667,0.0859375,0.09114583333333333,0.09635416666666667,0.09375,0.09114583333333333,0.1015625,0.11979166666666667,0.125,0.12369791666666667,0.12369791666666667,0.12369791666666667,0.12369791666666667,0.12369791666666667]","[0.00015499995788559318,0.04089999996358529,0.07754500000737607,0.11624499998288229,0.15498499997192994,0.19350999995367602,0.23310999997192994,0.27896999998483807,0.31953499995870516,0.36035499995341524,0.4010149999521673,0.4419449999695644,0.4828099999576807,0.5235600000014529,0.5641299999551848,0.6046999999671243,0.6495149999973364,0.6905149999656714,0.7323099999921396,0.773589999997057,0.8139349999837577,0.8549349999520928,0.8957949999603443,0.9362449999898672,0.977199999964796,1.0183749999850988,1.0584749999688938,1.0994599999976344]",-0.352864583,0.123697917,1,0,0,1.09932,distractor,,,,,,2,24,depression,future,I would feel totally deflated ,0.25,-0.25,-0.25,0.25,R_3fO8cllJOtTYDKf,B,2021-03-07_07h51.11.062,experiment,2020.2.6,Win32,60,,,-0.00390625,0.002604167,1,0,0,fixation,-0.00390625,-0.001302083,1,0,0,text_sentence,0,6,6,23,1
,,,,,,,,,,,,,,0,"[0.31,0.31]","[-0.31,-0.31]","[-0.02734375,-0.02734375,-0.02734375,-0.02734375,-0.02734375,-0.02734375,-0.02734375,-0.02734375,-0.032552083333333336,-0.09505208333333333,-0.17057291666666666,-0.23958333333333334,-0.2604166666666667,-0.265625,-0.2682291666666667,-0.2708333333333333,-0.2708333333333333,-0.2708333333333333,-0.2708333333333333,-0.2708333333333333,-0.265625,-0.25390625,-0.23177083333333334,-0.22005208333333334,-0.21744791666666666,-0.2265625,-0.25,-0.2630208333333333,-0.2643229166666667,-0.2591145833333333,-0.2513020833333333,-0.24479166666666666,-0.23697916666666666,-0.20703125,-0.10546875,-0.061197916666666664,-0.0546875,-0.19270833333333334,-0.27734375,-0.2877604166666667,-0.2799479166666667,-0.2526041666666667,-0.24088541666666666,-0.24088541666666666,-0.24609375,-0.2799479166666667,-0.3138020833333333,-0.32421875,-0.32421875,-0.32421875,-0.32421875,-0.32421875,-0.32421875,-0.32421875]","[-0.009114583333333334,-0.009114583333333334,-0.009114583333333334,-0.009114583333333334,-0.009114583333333334,-0.009114583333333334,-0.009114583333333334,-0.009114583333333334,-0.009114583333333334,-0.006510416666666667,0,0.016927083333333332,0.029947916666666668,0.05078125,0.061197916666666664,0.06770833333333333,0.07421875,0.07682291666666667,0.078125,0.07942708333333333,0.08463541666666667,0.0859375,0.059895833333333336,0.028645833333333332,0.006510416666666667,-0.018229166666666668,-0.029947916666666668,-0.02734375,-0.0078125,0.018229166666666668,0.061197916666666664,0.09505208333333333,0.11197916666666667,0.125,0.07421875,0.01953125,-0.14583333333333334,-0.3828125,-0.42578125,-0.4205729166666667,-0.3919270833333333,-0.3580729166666667,-0.34765625,-0.34765625,-0.3450520833333333,-0.3424479166666667,-0.3229166666666667,-0.3059895833333333,-0.3059895833333333,-0.3046875,-0.3046875,-0.3046875,-0.3046875,-0.3059895833333333]","[0.00013499998021870852,0.05712000001221895,0.0942899999790825,0.13315000000875443,0.1718799999798648,0.2107149999937974,0.249660000030417,0.28853499999968335,0.3279900000197813,0.3753349999897182,0.4162500000093132,0.45722500002011657,0.49806499999249354,0.5388099999981932,0.5789600000134669,0.6197249999968335,0.6602350000175647,0.7011000000056811,0.741295000014361,0.7827249999972992,0.8242600000230595,0.8648350000148639,0.9055400000070222,0.9461250000167638,0.9870300000184216,1.0277750000241213,1.0689450000063516,1.1092250000219792,1.1500850000302307,1.1902750000008382,1.231725000019651,1.2727150000282563,1.3134650000138208,1.3544499999843538,1.3949700000230223,1.4357350000063889,1.47652000002563,1.5174199999892153,1.5583500000066124,1.5992449999903329,1.640529999975115,1.6810849999892525,1.721834999974817,1.7621299999882467,1.8001449999865144,1.8443400000105612,1.8851049999939278,1.9258050000062212,1.9655250000068918,2.0031350000062957,2.0607750000199303,2.0977549999952316,2.136869999987539,2.1766499999794178]",-0.32421875,-0.305989583,1,0,0,2.176535,distractor,,,,,,2,10,anxiety,future,I would be a nervous wreck ,0.25,0.25,-0.25,-0.25,R_3fO8cllJOtTYDKf,B,2021-03-07_07h51.11.062,experiment,2020.2.6,Win32,60,,,-0.006510417,0.001302083,1,0,0,fixation,-0.02734375,-0.009114583,1,0,0,text_sentence,0,7,7,9,1
,,,,,,,,,,,,,,0,"[-0.15,-0.15]","[0.15,0.15]","[0.0013020833333333333,0.0013020833333333333,0.0013020833333333333,0.0026041666666666665,0.0026041666666666665,0.0026041666666666665,0.0026041666666666665,0.0026041666666666665,0.0026041666666666665,0.0026041666666666665,0.0026041666666666665,0.0026041666666666665,0.0026041666666666665,0.0013020833333333333,0,-0.013020833333333334,-0.05078125,-0.05078125,-0.033854166666666664,0.11588541666666667,0.18619791666666666,0.19661458333333334,0.19791666666666666,0.19661458333333334,0.19401041666666666,0.19140625,0.18619791666666666,0.1796875,0.17838541666666666,0.17838541666666666,0.1796875,0.18619791666666666,0.19140625,0.19140625,0.19010416666666666,0.18619791666666666,0.18229166666666666,0.1796875,0.17838541666666666]","[-0.0013020833333333333,-0.0013020833333333333,-0.0026041666666666665,-0.0026041666666666665,-0.0026041666666666665,-0.0026041666666666665,-0.0026041666666666665,-0.0026041666666666665,-0.0026041666666666665,-0.0026041666666666665,-0.0026041666666666665,-0.0026041666666666665,-0.0026041666666666665,-0.0026041666666666665,0.0013020833333333333,0.015625,0.041666666666666664,0.044270833333333336,0.059895833333333336,0.12239583333333333,0.14453125,0.14713541666666666,0.14973958333333334,0.14973958333333334,0.14973958333333334,0.14973958333333334,0.14973958333333334,0.15234375,0.15625,0.15885416666666666,0.16145833333333334,0.1640625,0.16276041666666666,0.15364583333333334,0.14973958333333334,0.14973958333333334,0.14973958333333334,0.14973958333333334,0.14973958333333334]","[0.00012500002048909664,0.03979500004788861,0.07997000002069399,0.12082000001100823,0.16264000005321577,0.1986900000483729,0.23750500002643093,0.2763649999978952,0.31522000004770234,0.3541450000484474,0.39322500000707805,0.43197500001406297,0.4711750000133179,0.5109100000117905,0.5511700000497513,0.59041000000434,0.6536700000287965,0.6942000000271946,0.7348550000460818,0.7757350000320002,0.8165150000131689,0.8579700000118464,0.8984100000234321,0.9385550000006333,0.9791150000528432,1.0194050000282004,1.0598900000331923,1.1006150000030175,1.1416850000387058,1.1826500000315718,1.2236050000065006,1.2658550000051036,1.3054300000076182,1.3463800000026822,1.3866450000205077,1.4290950000286102,1.4683599999989383,1.5093050000141375,1.5516900000511669]",0.178385417,0.149739583,1,0,0,1.55158,distractor,,,,,,2,34,neutral,present,They waffled on endlessly ,-0.25,-0.25,0.25,0.25,R_3fO8cllJOtTYDKf,B,2021-03-07_07h51.11.062,experiment,2020.2.6,Win32,60,,,0,-0.001302083,1,0,0,fixation,0.001302083,-0.001302083,1,0,0,text_sentence,0,8,8,33,1
,,,,,,,,,,,,,,0,"[-0.24,0.26]","[0.24,-0.26]","[-0.00390625,-0.00390625,-0.00390625,-0.00390625,-0.00390625,-0.0026041666666666665,0.049479166666666664,0.09635416666666667,0.125,0.13541666666666666,0.13932291666666666,0.13932291666666666,0.13932291666666666,0.13932291666666666,0.13932291666666666,0.13932291666666666,0.13932291666666666,0.13932291666666666,0.13802083333333334,0.13802083333333334,0.14192708333333334,0.15755208333333334,0.18098958333333334,0.20182291666666666,0.22395833333333334,0.23046875,0.234375,0.24609375,0.2513020833333333,0.2513020833333333,0.2513020833333333,0.2513020833333333]","[-0.006510416666666667,-0.006510416666666667,-0.006510416666666667,-0.006510416666666667,-0.006510416666666667,-0.005208333333333333,0.026041666666666668,0.053385416666666664,0.07291666666666667,0.0859375,0.08984375,0.08984375,0.08984375,0.08984375,0.08854166666666667,0.0859375,0.08463541666666667,0.08463541666666667,0.08072916666666667,0.0390625,0.0026041666666666665,-0.03515625,-0.08203125,-0.12369791666666667,-0.18229166666666666,-0.20182291666666666,-0.21354166666666666,-0.23567708333333334,-0.24609375,-0.24609375,-0.24609375,-0.24609375]","[0.00010000000474974513,0.03935000003548339,0.07549499999731779,0.11493999999947846,0.15382000000681728,0.19333500001812354,0.24119500000961125,0.2819149999995716,0.32385500002419576,0.36347500002011657,0.4040249999961816,0.44458000001031905,0.4841050000395626,0.5203350000083447,0.5600449999910779,0.6094349999912083,0.6498199999914505,0.6895500000100583,0.727065000042785,0.7766750000300817,0.8179900000104681,0.8585750000202097,0.8993500000215136,0.9413000000058673,0.9818100000265986,1.0222300000023097,1.0631050000083633,1.1038800000096671,1.1445999999996275,1.1843450000160374,1.2212500000023283,1.2607549999956973]",0.125,0.072916667,1,0,0,0.323785,distractor,,,,,,2,11,anxiety,past,The lid flew off and everything came out ,-0.25,0.25,0.25,-0.25,R_3fO8cllJOtTYDKf,B,2021-03-07_07h51.11.062,experiment,2020.2.6,Win32,60,,,-0.00390625,-0.00390625,1,0,0,fixation,-0.00390625,-0.006510417,1,0,0,text_sentence,0,9,9,10,1
,,,,,,,,,,,,,,0,"[-0.22,-0.22]","[0.22,0.22]","[-0.04296875,-0.040364583333333336,-0.040364583333333336,-0.040364583333333336,-0.040364583333333336,-0.040364583333333336,-0.040364583333333336,-0.040364583333333336,-0.040364583333333336,-0.040364583333333336,-0.040364583333333336,-0.044270833333333336,-0.052083333333333336,-0.078125,-0.14453125,-0.17838541666666666,-0.19010416666666666,-0.19270833333333334,-0.19270833333333334,-0.19270833333333334,-0.19270833333333334,-0.19270833333333334,-0.19270833333333334,-0.19270833333333334,-0.19270833333333334,-0.19140625,-0.14583333333333334,0.0013020833333333333,0.09895833333333333,0.17317708333333334,0.2109375,0.21484375,0.21484375,0.21614583333333334,0.22005208333333334,0.22135416666666666]","[-0.010416666666666666,-0.01171875,-0.01171875,-0.01171875,-0.0078125,-0.006510416666666667,-0.006510416666666667,-0.006510416666666667,-0.006510416666666667,-0.006510416666666667,-0.00390625,0.00390625,0.041666666666666664,0.11848958333333333,0.18619791666666666,0.1953125,0.19661458333333334,0.19921875,0.19921875,0.19921875,0.19921875,0.19921875,0.19921875,0.19921875,0.19921875,0.20182291666666666,0.22916666666666666,0.24739583333333334,0.23307291666666666,0.22135416666666666,0.20442708333333334,0.203125,0.203125,0.20442708333333334,0.20963541666666666,0.20963541666666666]","[0.00010500004282221198,0.038930000038817525,0.07872500002849847,0.11510000005364418,0.15474000002723187,0.19874500000150874,0.23862000001827255,0.2749700000276789,0.3136250000097789,0.35254500003065914,0.3927700000349432,0.44780500000342727,0.488370000035502,0.529210000007879,0.5703700000303797,0.6114150000503287,0.6535050000529736,0.693520000029821,0.7330900000524707,0.769365000014659,0.8081900000106543,0.8470250000245869,0.8862150000059046,0.9258000000263564,0.9646599999978207,1.0042000000248663,1.0497450000257231,1.0908200000412762,1.1316250000381842,1.1723100000526756,1.213080000015907,1.2540250000311062,1.294240000017453,1.3350349999964237,1.3755499999970198,1.4174200000124983]",0.221354167,0.209635417,1,0,0,1.41733,distractor,,,,,,2,31,depression,past,I descended into oblivion ,-0.25,-0.25,0.25,0.25,R_3fO8cllJOtTYDKf,B,2021-03-07_07h51.11.062,experiment,2020.2.6,Win32,60,,,-0.00390625,-0.002604167,1,0,0,fixation,-0.04296875,-0.010416667,1,0,0,text_sentence,0,10,10,30,1
,,,,,,,,,,,,,,1,"[0.28,0.28]","[-0.28,-0.28]","[-0.010416666666666666,-0.010416666666666666,-0.010416666666666666,-0.010416666666666666,-0.010416666666666666,-0.010416666666666666,-0.010416666666666666,-0.010416666666666666,-0.010416666666666666,-0.010416666666666666,-0.010416666666666666,-0.010416666666666666,-0.010416666666666666,-0.010416666666666666,-0.010416666666666666,-0.010416666666666666,-0.010416666666666666,-0.010416666666666666,-0.010416666666666666,-0.016927083333333332,-0.053385416666666664,-0.0859375,-0.11328125,-0.13541666666666666,-0.13541666666666666,-0.13411458333333334,-0.12890625,-0.1171875,-0.08333333333333333,-0.037760416666666664,-0.01953125,-0.018229166666666668,-0.01953125,-0.026041666666666668,-0.029947916666666668,-0.0026041666666666665,0.018229166666666668,0.01953125,0.01953125,0.01953125,0.01953125,0.01953125,0.01953125,0.06510416666666667,0.2942708333333333,0.3268229166666667,0.3294270833333333,0.328125,0.3177083333333333,0.3072916666666667,0.296875,0.2916666666666667,0.2903645833333333,0.2903645833333333]","[0.0026041666666666665,0.0026041666666666665,0.0026041666666666665,0.0026041666666666665,0.0026041666666666665,0.0026041666666666665,0.0026041666666666665,0.0026041666666666665,0.0026041666666666665,0.0026041666666666665,0.0026041666666666665,0.0026041666666666665,0.0026041666666666665,0.0026041666666666665,0.0026041666666666665,0.0026041666666666665,0.0026041666666666665,0.0026041666666666665,0.0026041666666666665,0.0026041666666666665,0.006510416666666667,0.018229166666666668,0.03515625,0.049479166666666664,0.052083333333333336,0.05859375,0.07421875,0.07682291666666667,0.0703125,0.041666666666666664,0.0078125,-0.0013020833333333333,-0.00390625,0.015625,0.15625,0.265625,0.3046875,0.2994791666666667,0.2994791666666667,0.2994791666666667,0.2994791666666667,0.2994791666666667,0.2994791666666667,0.3177083333333333,0.3255208333333333,0.2994791666666667,0.2916666666666667,0.2864583333333333,0.2838541666666667,0.28515625,0.2864583333333333,0.2864583333333333,0.2864583333333333,0.2864583333333333]","[0.00012499996228143573,0.03970999998273328,0.07569999998668209,0.11516499996650964,0.1728550000116229,0.20900500001152977,0.2478349999873899,0.28835499996785074,0.32765499997185543,0.3667799999821,0.405544999986887,0.44430500001180917,0.4903049999848008,0.5266049999627285,0.5656149999704212,0.6046300000161864,0.6435949999722652,0.6832350000040606,0.7231550000142306,0.7628499999991618,0.809865000017453,0.8503550000023097,0.8911949999746867,0.931624999968335,0.9722049999982119,1.013135000015609,1.0550299999886192,1.0955899999826215,1.1364600000088103,1.176969999971334,1.2175900000147521,1.258594999962952,1.2994150000158697,1.3404399999999441,1.3810400000074878,1.4217599999974482,1.4623349999892525,1.5026799999759533,1.5424999999813735,1.578879999986384,1.6180249999742955,1.6573150000185706,1.6974850000115111,1.738199999963399,1.7950650000129826,1.8355599999777041,1.8764099999680184,1.9174200000124983,1.9582299999892712,1.9988349999766797,2.0402049999684095,2.080489999963902,2.1208650000044145,2.162190000002738]",0.290364583,0.286458333,1,0,0,2.162115,target,,,,,,2,45,neutral,present,That was a close shave ,0.25,0.25,-0.25,-0.25,R_3fO8cllJOtTYDKf,B,2021-03-07_07h51.11.062,experiment,2020.2.6,Win32,60,,,-0.006510417,0,1,0,0,fixation,-0.010416667,0.002604167,1,0,0,text_sentence,0,11,11,44,1
,,,,,,,,,,,,,,0,"[0.28,-0.22]","[-0.28,0.22]","[0.00390625,0.00390625,0.00390625,0.00390625,0.00390625,0.00390625,0.00390625,0.00390625,0.00390625,0.00390625,0.00390625,0.00390625,0.00390625,0.00390625,0.00390625,0.00390625,0.00390625,0.00390625,0.00390625,0.00390625,0.00390625,0.00390625,0.00390625,0.00390625,-0.041666666666666664,-0.28515625,-0.3463541666666667,-0.359375,-0.3619791666666667,-0.3619791666666667,-0.3619791666666667,-0.3411458333333333,-0.31640625,-0.3059895833333333,-0.2994791666666667,-0.29296875,-0.2890625,-0.28515625,-0.2786458333333333,-0.2747395833333333,-0.2747395833333333]","[-0.0013020833333333333,-0.0013020833333333333,-0.0026041666666666665,-0.00390625,-0.00390625,-0.00390625,-0.00390625,-0.00390625,-0.00390625,-0.0026041666666666665,-0.0026041666666666665,-0.0026041666666666665,-0.0026041666666666665,-0.0026041666666666665,-0.0026041666666666665,-0.0026041666666666665,-0.0026041666666666665,-0.0026041666666666665,-0.0026041666666666665,-0.0026041666666666665,-0.0026041666666666665,-0.0026041666666666665,-0.0026041666666666665,-0.0026041666666666665,0.018229166666666668,0.24088541666666666,0.3138020833333333,0.3229166666666667,0.3229166666666667,0.32421875,0.3268229166666667,0.3190104166666667,0.2994791666666667,0.27734375,0.2578125,0.24348958333333334,0.23567708333333334,0.22526041666666666,0.20572916666666666,0.19921875,0.19791666666666666]","[0.00013000000035390258,0.04019999998854473,0.07688499998766929,0.11639499996090308,0.16385499999159947,0.19991999998455867,0.2386749999714084,0.277704999956768,0.31701499997870997,0.3565449999878183,0.3953749999636784,0.43404500000178814,0.4729199999710545,0.5118349999538623,0.5633800000068732,0.6004949999623932,0.6395149999880232,0.6784800000023097,0.7209199999924749,0.7598850000067614,0.7984849999775179,0.8373249999713153,0.8767999999690801,0.9156399999628775,0.9556449999799952,1.0009149999823421,1.0431899999966845,1.0834549999563023,1.1254799999878742,1.1646099999779835,1.2052449999609962,1.246099999989383,1.287224999978207,1.328624999965541,1.369124999968335,1.4101549999904819,1.4502899999497458,1.491234999964945,1.532054999959655,1.5729099999880418,1.6142699999618344]",-0.274739583,0.197916667,1,0,0,1.614165,distractor,,,,,,2,42,neutral,present, She disappeared into thin air ,0.25,-0.25,-0.25,0.25,R_3fO8cllJOtTYDKf,B,2021-03-07_07h51.11.062,experiment,2020.2.6,Win32,60,,,0.005208333,-0.010416667,1,0,0,fixation,0.00390625,-0.001302083,1,0,0,text_sentence,0,12,12,41,1
,,,,,,,,,,,,,,1,"[0.33,0.33]","[-0.33,-0.33]","[0.006510416666666667,0.006510416666666667,0.006510416666666667,0.006510416666666667,0.006510416666666667,0.006510416666666667,0.006510416666666667,0.006510416666666667,0.006510416666666667,0.006510416666666667,0.006510416666666667,0.006510416666666667,0.0390625,0.16276041666666666,0.17708333333333334,0.17708333333333334,0.17708333333333334,0.17708333333333334,0.17708333333333334,0.17708333333333334,0.17838541666666666,0.18489583333333334,0.18880208333333334,0.19791666666666666,0.20833333333333334,0.20833333333333334,0.20833333333333334,0.20833333333333334,0.20833333333333334,0.20833333333333334,0.20833333333333334,0.20833333333333334,0.20833333333333334,0.20833333333333334,0.20833333333333334,0.2109375,0.2643229166666667,0.2799479166666667,0.2799479166666667,0.2799479166666667,0.2799479166666667,0.2799479166666667,0.2799479166666667,0.2799479166666667,0.2799479166666667,0.2890625,0.3072916666666667,0.3151041666666667,0.3203125,0.3229166666666667]","[-0.005208333333333333,-0.005208333333333333,-0.005208333333333333,-0.005208333333333333,-0.005208333333333333,-0.006510416666666667,-0.006510416666666667,-0.006510416666666667,-0.006510416666666667,-0.006510416666666667,-0.006510416666666667,-0.006510416666666667,-0.029947916666666668,-0.140625,-0.16015625,-0.16015625,-0.16015625,-0.16015625,-0.16015625,-0.16015625,-0.16015625,-0.16015625,-0.14973958333333334,-0.0390625,0.044270833333333336,0.044270833333333336,0.044270833333333336,0.044270833333333336,0.044270833333333336,0.044270833333333336,0.044270833333333336,0.044270833333333336,0.044270833333333336,0.044270833333333336,0.044270833333333336,0.05859375,0.2643229166666667,0.3111979166666667,0.3111979166666667,0.3111979166666667,0.3111979166666667,0.3111979166666667,0.3111979166666667,0.3111979166666667,0.3111979166666667,0.3111979166666667,0.3072916666666667,0.3033854166666667,0.30078125,0.30078125]","[0.00018999999156221747,0.04660999996121973,0.08305499999551103,0.12187999999150634,0.16122999996878207,0.20082500000717118,0.245859999966342,0.28189499996369705,0.32058999995933846,0.3593000000109896,0.39811999996891245,0.4373799999593757,0.4771949999849312,0.5327349999570288,0.5731999999843538,0.6131099999765866,0.6492049999651499,0.6878300000098534,0.7285849999752827,0.7676249999785796,0.807509999955073,0.8485649999929592,0.8999199999962002,0.9403649999876507,0.980890000006184,1.0219499999657273,1.0620449999696575,1.0984949999838136,1.1374499999801628,1.1780799999833107,1.2324599999701604,1.2704249999951571,1.3093849999713711,1.348729999968782,1.3882849999936298,1.4283099999884143,1.4840349999722093,1.524440000008326,1.5646249999990687,1.6010549999773502,1.6398499999777414,1.678719999967143,1.7175099999876693,1.757515000004787,1.7967749999952503,1.836925000010524,1.8852900000056252,1.9260449999710545,1.9668449999880977,2.007849999994505]",0.322916667,0.30078125,1,0,0,2.007695,target,,,,,,2,4,anxiety,future,I will be bouncing off the ceiling ,0.25,0.25,-0.25,-0.25,R_3fO8cllJOtTYDKf,B,2021-03-07_07h51.11.062,experiment,2020.2.6,Win32,60,,,0.005208333,-0.002604167,1,0,0,fixation,0.006510417,-0.005208333,1,0,0,text_sentence,0,13,13,3,1
,,,,,,,,,,,,,,0,"[0.27,-0.23]","[-0.27,0.23]","[0.02734375,0.029947916666666668,0.029947916666666668,0.029947916666666668,0.029947916666666668,0.03125,0.03125,0.033854166666666664,0.046875,0.0625,0.06640625,0.06510416666666667,-0.10026041666666667,-0.12890625,-0.12890625,-0.12890625,-0.12890625,-0.12890625,-0.12890625,-0.12890625,-0.12890625,-0.12890625,-0.1328125,-0.203125,-0.2708333333333333,-0.28515625,-0.2877604166666667,-0.2903645833333333,-0.2916666666666667,-0.2916666666666667,-0.2916666666666667,-0.2903645833333333]","[0.00390625,0.00390625,0.00390625,0.00390625,0.00390625,0.00390625,0.00390625,0.00390625,0.0013020833333333333,-0.006510416666666667,-0.0078125,-0.0078125,0.06510416666666667,0.07682291666666667,0.07682291666666667,0.07682291666666667,0.07682291666666667,0.07682291666666667,0.07682291666666667,0.07682291666666667,0.07682291666666667,0.07682291666666667,0.07682291666666667,0.12369791666666667,0.18489583333333334,0.20052083333333334,0.20572916666666666,0.21484375,0.22265625,0.2265625,0.22786458333333334,0.22786458333333334]","[0.0001550000160932541,0.03957500000251457,0.08100000000558794,0.12093999999342486,0.1573750000097789,0.1967350000049919,0.24632999999448657,0.2832100000232458,0.332265000033658,0.37397499999497086,0.41464999999152496,0.45624500000849366,0.4979000000166707,0.5391500000259839,0.5791350000072271,0.6201599999913014,0.6563550000428222,0.6951100000296719,0.7340900000417605,0.7735150000080466,0.8125449999934062,0.8515250000054948,0.8929400000488386,0.9498200000380166,0.9902400000137277,1.031215000024531,1.0721699999994598,1.1132300000172108,1.1539750000229105,1.1946450000395998,1.2347100000479259,1.2756999999983236]",-0.290364583,0.227864583,1,0,0,1.275565,distractor,,,,,,2,28,depression,future,It can make me feel low and numb ,0.25,-0.25,-0.25,0.25,R_3fO8cllJOtTYDKf,B,2021-03-07_07h51.11.062,experiment,2020.2.6,Win32,60,,,0.001302083,-0.016927083,1,0,0,fixation,0.02734375,0.00390625,1,0,0,text_sentence,0,14,14,27,1
,,,,,,,,,,,,,,0,"[-0.19,-0.19]","[0.19,0.19]","[0,0,0,0,0,0,0,0,0,0.0026041666666666665,0.0026041666666666665,-0.013020833333333334,-0.028645833333333332,-0.08723958333333333,-0.16796875,-0.18489583333333334,-0.18619791666666666,-0.18619791666666666,-0.18619791666666666,-0.18880208333333334,-0.1875,-0.15755208333333334,-0.109375,-0.06640625,-0.048177083333333336,-0.032552083333333336,-0.009114583333333334,-0.009114583333333334,-0.009114583333333334,-0.009114583333333334,-0.009114583333333334,-0.009114583333333334,-0.00390625,0.06510416666666667,0.1171875,0.13020833333333334,0.13541666666666666,0.13671875,0.13802083333333334,0.14973958333333334,0.16796875,0.17838541666666666,0.18229166666666666,0.18489583333333334,0.18619791666666666,0.1875]","[-0.0013020833333333333,-0.0013020833333333333,-0.0013020833333333333,-0.0013020833333333333,-0.0013020833333333333,-0.0013020833333333333,-0.0013020833333333333,-0.0013020833333333333,0,0.014322916666666666,0.08203125,0.15364583333333334,0.17578125,0.19140625,0.24479166666666666,0.26171875,0.2643229166666667,0.2643229166666667,0.2630208333333333,0.26171875,0.26171875,0.265625,0.265625,0.2513020833333333,0.24088541666666666,0.23177083333333334,0.21484375,0.21484375,0.21484375,0.21484375,0.21484375,0.21484375,0.21484375,0.23828125,0.23307291666666666,0.22005208333333334,0.21354166666666666,0.21223958333333334,0.21223958333333334,0.20572916666666666,0.19140625,0.18359375,0.18098958333333334,0.18098958333333334,0.18229166666666666,0.18359375]","[0.00010000000474974513,0.03929499996593222,0.07621500000823289,0.11483999999472871,0.1540899999672547,0.19334999995771796,0.23223999998299405,0.2756499999668449,0.31511500000488013,0.35492999997222796,0.4114549999940209,0.45224999997299165,0.4931449999567121,0.534029999980703,0.5749150000046939,0.6156999999657273,0.655945000005886,0.6956349999527447,0.7327999999979511,0.7792250000056811,0.8197149999905378,0.861975000007078,0.9040349999559112,0.9447199999704026,0.9854449999984354,1.0265099999960512,1.0664799999794923,1.105890000006184,1.1424750000005588,1.1816349999862723,1.2207150000031106,1.2593650000053458,1.2987749999738298,1.346655000001192,1.3874899999937043,1.428124999976717,1.4688449999666773,1.509714999992866,1.5500349999638274,1.5908399999607354,1.6310149999917485,1.6716599999926984,1.7124149999581277,1.753084999974817,1.7941899999859743,1.8351599999587052]",0.1875,0.18359375,1,0,0,1.83508,distractor,,,,,,2,23,depression,past,Things went rapidly downhill ,-0.25,-0.25,0.25,0.25,R_3fO8cllJOtTYDKf,B,2021-03-07_07h51.11.062,experiment,2020.2.6,Win32,60,,,0.001302083,-0.002604167,1,0,0,fixation,0,-0.001302083,1,0,0,text_sentence,0,15,15,22,1
,,,,,,,,,,,,,,1,"[-0.16,0.33999999999999997]","[0.16,-0.33999999999999997]","[-0.005208333333333333,-0.005208333333333333,-0.005208333333333333,-0.005208333333333333,-0.005208333333333333,-0.005208333333333333,-0.005208333333333333,-0.005208333333333333,-0.005208333333333333,-0.005208333333333333,-0.005208333333333333,-0.005208333333333333,-0.005208333333333333,-0.005208333333333333,-0.005208333333333333,-0.005208333333333333,-0.005208333333333333,-0.005208333333333333,-0.005208333333333333,-0.005208333333333333,-0.018229166666666668,-0.08333333333333333,-0.16927083333333334,-0.19921875,-0.19921875,-0.19791666666666666,-0.19401041666666666,-0.19270833333333334,-0.19140625,-0.18880208333333334,-0.17447916666666666,-0.16536458333333334,-0.16536458333333334,-0.1640625,-0.16276041666666666]","[-0.005208333333333333,-0.005208333333333333,-0.005208333333333333,-0.005208333333333333,-0.005208333333333333,-0.005208333333333333,-0.005208333333333333,-0.005208333333333333,-0.005208333333333333,-0.005208333333333333,-0.005208333333333333,-0.005208333333333333,-0.005208333333333333,-0.005208333333333333,-0.005208333333333333,-0.005208333333333333,-0.005208333333333333,-0.005208333333333333,-0.005208333333333333,-0.005208333333333333,-0.005208333333333333,0.06640625,0.21875,0.3138020833333333,0.3372395833333333,0.3528645833333333,0.3723958333333333,0.3841145833333333,0.390625,0.3841145833333333,0.3658854166666667,0.3567708333333333,0.35546875,0.3515625,0.3515625]","[0.00015999999595806003,0.04041999997571111,0.07707999995909631,0.11574999999720603,0.15441499999724329,0.19315999996615574,0.23178999999072403,0.2709699999541044,0.3103399999672547,0.34912999998778105,0.38795499998377636,0.4268900000024587,0.4657199999783188,0.5044999999809079,0.5434849999728613,0.5827149999677204,0.6220099999918602,0.661249999946449,0.6998749999911524,0.7393199999933131,0.7788349999464117,0.8381199999712408,0.8791999999666587,0.9201199999661185,0.9610849999589846,1.0025449999957345,1.0445249999756925,1.0851849999744445,1.1257949999999255,1.1665549999452196,1.2071449999930337,1.2482949999975972,1.2885049999458715,1.3296099999570288,1.3709599999710917]",-0.162760417,0.3515625,1,0,0,1.37083,target,,,,,,2,15,anxiety,past,I could not shake the nervous feelin,-0.25,0.25,0.25,-0.25,R_3fO8cllJOtTYDKf,B,2021-03-07_07h51.11.062,experiment,2020.2.6,Win32,60,,,-0.009114583,-0.0078125,1,0,0,fixation,-0.005208333,-0.005208333,1,0,0,text_sentence,0,16,16,14,1
,,,,,,,,,,,,,,1,"[0.32,0.32]","[-0.32,-0.32]","[0.006510416666666667,0.006510416666666667,0.006510416666666667,0.006510416666666667,0.006510416666666667,0.006510416666666667,0.006510416666666667,0.006510416666666667,0.006510416666666667,0.005208333333333333,-0.005208333333333333,-0.018229166666666668,-0.029947916666666668,-0.07291666666666667,-0.09895833333333333,-0.10807291666666667,-0.10807291666666667,-0.10807291666666667,-0.06901041666666667,-0.010416666666666666,0.03515625,0.03515625,0.03515625,0.03515625,0.03515625,0.03515625,0.1015625,0.2552083333333333,0.28125,0.29296875,0.29296875,0.29296875,0.29296875,0.29296875,0.2942708333333333]","[-0.010416666666666666,-0.010416666666666666,-0.010416666666666666,-0.010416666666666666,-0.010416666666666666,-0.010416666666666666,-0.010416666666666666,-0.010416666666666666,-0.010416666666666666,-0.010416666666666666,0.005208333333333333,0.020833333333333332,0.045572916666666664,0.13671875,0.2109375,0.2630208333333333,0.2760416666666667,0.2760416666666667,0.2825520833333333,0.25390625,0.203125,0.203125,0.203125,0.203125,0.203125,0.203125,0.2734375,0.3307291666666667,0.3177083333333333,0.3111979166666667,0.3111979166666667,0.3111979166666667,0.3111979166666667,0.3125,0.3125]","[0.00010000000474974513,0.03936499997507781,0.07527500001015142,0.11437999998452142,0.15304000000469387,0.19196500000543892,0.23096000001532957,0.27007500000763685,0.3097800000105053,0.349965000001248,0.3963649999932386,0.43679000000702217,0.4772549999761395,0.517954999988433,0.558580000011716,0.599854999978561,0.6402999999700114,0.6800800000200979,0.7174399999785237,0.7646250000107102,0.8051250000135042,0.8450949999969453,0.8815000000176951,0.9206099999719299,0.9598600000026636,0.9987250000122003,1.0385699999751523,1.0985450000152923,1.1389900000067428,1.1797599999699742,1.2197649999870919,1.2563150000059977,1.295319999975618,1.3361499999882653,1.3830650000018068]",0.294270833,0.3125,1,0,0,1.383005,target,,,,,,2,8,anxiety,future,I would be off the chart ,0.25,0.25,-0.25,-0.25,R_3fO8cllJOtTYDKf,B,2021-03-07_07h51.11.062,experiment,2020.2.6,Win32,60,,,0.00390625,-0.014322917,1,0,0,fixation,0.006510417,-0.010416667,1,0,0,text_sentence,0,17,17,7,1
,,,,,,,,,,,,,,0,"[-0.21,-0.21]","[0.21,0.21]","[-0.01171875,-0.01171875,-0.01171875,-0.01171875,-0.01171875,-0.01171875,-0.01171875,-0.01171875,-0.01171875,-0.006510416666666667,0.015625,0.06510416666666667,0.12630208333333334,0.1484375,0.15494791666666666,0.16276041666666666,0.16927083333333334,0.17578125,0.1875,0.19791666666666666,0.20572916666666666,0.20703125]","[0.006510416666666667,0.006510416666666667,0.006510416666666667,0.006510416666666667,0.006510416666666667,0.006510416666666667,0.006510416666666667,0.009114583333333334,0.01171875,0.03125,0.11328125,0.20572916666666666,0.24869791666666666,0.2591145833333333,0.26171875,0.26171875,0.26171875,0.2565104166666667,0.24088541666666666,0.22135416666666666,0.20963541666666666,0.20572916666666666]","[0.00016000005416572094,0.047055000031832606,0.08382500003790483,0.12283500004559755,0.16188500000862405,0.20076000003609806,0.2398300000349991,0.27963000000454485,0.33139000000664964,0.37226000003283843,0.41339000000152737,0.4541750000207685,0.4960900000296533,0.5373400000389665,0.5777650000527501,0.6186549999983981,0.6643650000332855,0.7033750000409782,0.7457300000241958,0.7859000000171363,0.8264700000290759,0.8691700000199489]",0.20703125,0.205729167,1,0,0,0.86903,distractor,,,,,,2,21,depression,past,Talking with her brought me down,-0.25,-0.25,0.25,0.25,R_3fO8cllJOtTYDKf,B,2021-03-07_07h51.11.062,experiment,2020.2.6,Win32,60,,,-0.01171875,0.006510417,1,0,0,fixation,-0.01171875,0.006510417,1,0,0,text_sentence,0,18,18,20,1
,,,,,,,,,,,,,,0,"[-0.16999999999999998,-0.16999999999999998]","[0.16999999999999998,0.16999999999999998]","[0.010416666666666666,0.01171875,0.013020833333333334,0.013020833333333334,0.013020833333333334,0.013020833333333334,0.013020833333333334,0.020833333333333332,0.053385416666666664,0.07421875,0.08723958333333333,0.09635416666666667,0.10026041666666667,0.10546875,0.10807291666666667,0.11067708333333333,0.11328125,0.1171875,0.1171875,0.11979166666666667,0.12109375,0.12630208333333334,0.13932291666666666,0.14973958333333334,0.15104166666666666,0.15104166666666666,0.15104166666666666]","[-0.005208333333333333,-0.005208333333333333,-0.005208333333333333,-0.005208333333333333,-0.005208333333333333,-0.005208333333333333,-0.005208333333333333,-0.00390625,0.009114583333333334,0.016927083333333332,0.0234375,0.03515625,0.045572916666666664,0.0546875,0.08333333333333333,0.12109375,0.16145833333333334,0.19140625,0.19270833333333334,0.19401041666666666,0.19401041666666666,0.19010416666666666,0.17447916666666666,0.16145833333333334,0.15885416666666666,0.15885416666666666,0.15885416666666666]","[0.00023999996483325958,0.03977999999187887,0.08133499999530613,0.12032499996712431,0.156589999969583,0.19518999999854714,0.23413499997695908,0.2748099999735132,0.3254849999793805,0.36642499995650724,0.40826499997638166,0.44887999998172745,0.48948499996913597,0.530544999986887,0.5711799999698997,0.6120249999803491,0.6529800000134856,0.6937850000103936,0.7342699999571778,0.7750799999921583,0.8154399999766611,0.8562449999735691,0.8969349999679253,0.9380249999812804,0.9786050000111572,1.0187300000106916,1.0557449999614619]",0.151041667,0.158854167,1,0,0,1.055535,distractor,,,,,,2,27,depression,past,I was at the bottom of the barrel ,-0.25,-0.25,0.25,0.25,R_3fO8cllJOtTYDKf,B,2021-03-07_07h51.11.062,experiment,2020.2.6,Win32,60,,,0.005208333,-0.01171875,1,0,0,fixation,0.010416667,-0.005208333,1,0,0,text_sentence,0,19,19,26,1
,,,,,,,,,,,,,,1,"[-0.16999999999999998,-0.16999999999999998]","[0.16999999999999998,0.16999999999999998]","[0,0,0,0,0,0,0,0,-0.0026041666666666665,-0.041666666666666664,-0.12890625,-0.14973958333333334,-0.15625,-0.16015625,-0.16145833333333334,-0.16145833333333334,-0.16145833333333334,-0.16145833333333334,-0.16145833333333334,-0.16145833333333334,-0.16145833333333334,-0.16145833333333334,-0.16145833333333334,-0.16145833333333334,-0.16145833333333334,-0.1640625,-0.16796875,-0.16796875,-0.16927083333333334]","[-0.0078125,-0.009114583333333334,-0.009114583333333334,-0.009114583333333334,-0.009114583333333334,-0.009114583333333334,-0.010416666666666666,-0.01171875,-0.015625,-0.046875,-0.10807291666666667,-0.125,-0.13411458333333334,-0.13541666666666666,-0.13411458333333334,-0.13411458333333334,-0.13411458333333334,-0.13411458333333334,-0.13411458333333334,-0.13411458333333334,-0.13411458333333334,-0.13411458333333334,-0.13411458333333334,-0.13411458333333334,-0.13671875,-0.14973958333333334,-0.15625,-0.16276041666666666,-0.1640625]","[0.00014000001829117537,0.054835000017192215,0.09710000001359731,0.1368149999761954,0.17295999999623746,0.21172999998088926,0.2512400000123307,0.2900800000061281,0.3292399999918416,0.3881800000090152,0.42869500000961125,0.46931999997468665,0.5097500000265427,0.5501950000179932,0.5903849999886006,0.6302000000141561,0.6666850000037812,0.7054950000019744,0.7444849999737926,0.7837050000089221,0.8222199999727309,0.8609849999775179,0.8998949999804609,0.9387749999877997,0.9786600000225008,1.0238549999776296,1.0644800000009127,1.1064550000010058,1.1558599999989383]",-0.169270833,-0.1640625,1,0,0,1.15574,target,,,,,,2,17,depression,past,I had reached rock bottom ,-0.25,-0.25,0.25,0.25,R_3fO8cllJOtTYDKf,B,2021-03-07_07h51.11.062,experiment,2020.2.6,Win32,60,,,-0.002604167,-0.0078125,1,0,0,fixation,0,-0.0078125,1,0,0,text_sentence,0,20,20,16,1
,,,,,,,,,,,,,,0,"[0.27,0.27]","[-0.27,-0.27]","[0.0026041666666666665,0.0026041666666666665,0.0013020833333333333,0.0013020833333333333,0.0013020833333333333,0.0013020833333333333,0.0013020833333333333,0.0013020833333333333,0.0013020833333333333,0.0013020833333333333,0.0013020833333333333,-0.0013020833333333333,-0.0078125,-0.03515625,-0.11328125,-0.21354166666666666,-0.2734375,-0.2838541666666667,-0.28515625,-0.28515625,-0.2838541666666667,-0.2838541666666667,-0.2838541666666667,-0.2825520833333333,-0.27734375,-0.2760416666666667,-0.2760416666666667,-0.2760416666666667,-0.2760416666666667]","[-0.015625,-0.015625,-0.015625,-0.015625,-0.015625,-0.015625,-0.015625,-0.015625,-0.015625,-0.015625,-0.015625,-0.015625,-0.01953125,-0.0390625,-0.13020833333333334,-0.2721354166666667,-0.359375,-0.3802083333333333,-0.3802083333333333,-0.3658854166666667,-0.3606770833333333,-0.3541666666666667,-0.3372395833333333,-0.3098958333333333,-0.2760416666666667,-0.2708333333333333,-0.265625,-0.2630208333333333,-0.26171875]","[0.00015999999595806003,0.050350000034086406,0.09173500002361834,0.13176499999826774,0.16790499998023733,0.20661500003188848,0.24702499998966232,0.2857499999809079,0.32474499999079853,0.36376999999629334,0.4031550000072457,0.4435100000118837,0.5015049999929033,0.5421099999803118,0.5825349999940954,0.623215000028722,0.6639950000098906,0.7049550000228919,0.7458549999864772,0.786885000008624,0.8287000000127591,0.8689899999881163,0.9095300000044517,0.9504450000240467,0.9907200000016019,1.0321700000204146,1.0727850000257604,1.113840000005439,1.1551249999902211]",-0.276041667,-0.26171875,1,0,0,1.154995,distractor,,,,,,2,2,anxiety,future,It would wind me up ,0.25,0.25,-0.25,-0.25,R_3fO8cllJOtTYDKf,B,2021-03-07_07h51.11.062,experiment,2020.2.6,Win32,60,,,0.002604167,-0.018229167,1,0,0,fixation,0.002604167,-0.015625,1,0,0,text_sentence,0,21,21,1,1
,,,,,,,,,,,,,,1,"[-0.21,-0.21]","[0.21,0.21]","[-0.00390625,-0.00390625,-0.00390625,-0.00390625,-0.00390625,-0.005208333333333333,-0.005208333333333333,-0.005208333333333333,-0.022135416666666668,-0.0625,-0.10807291666666667,-0.1484375,-0.16276041666666666,-0.171875,-0.17578125,-0.17578125,-0.17317708333333334,-0.16666666666666666,-0.16666666666666666,-0.171875,-0.18359375,-0.1953125,-0.19921875,-0.19921875,-0.20052083333333334,-0.20052083333333334]","[-0.0013020833333333333,-0.0013020833333333333,-0.0013020833333333333,-0.0013020833333333333,-0.0013020833333333333,-0.0013020833333333333,-0.0026041666666666665,-0.0026041666666666665,-0.022135416666666668,-0.059895833333333336,-0.09635416666666667,-0.1328125,-0.14453125,-0.1484375,-0.15234375,-0.15234375,-0.14583333333333334,-0.13671875,-0.13802083333333334,-0.14453125,-0.16145833333333334,-0.18619791666666666,-0.19401041666666666,-0.19661458333333334,-0.19921875,-0.19921875]","[0.0001799999736249447,0.05592499999329448,0.09265999996569008,0.13150000001769513,0.17006999999284744,0.20987000002060086,0.2490799999795854,0.30653499998152256,0.3437649999978021,0.3843050000141375,0.4413700000150129,0.48248000000603497,0.5228599999682046,0.5631350000039674,0.6037800000049174,0.643854999972973,0.6817300000111572,0.7414049999788404,0.7817700000014156,0.8224700000137091,0.8633900000131689,0.9039299999712966,0.9443949999986216,0.985419999982696,1.026335000002291,1.0669999999809079]",-0.200520833,-0.19921875,1,0,0,1.06684,target,,,,,,2,29,depression,past,It made my mood nosedive ,-0.25,-0.25,0.25,0.25,R_3fO8cllJOtTYDKf,B,2021-03-07_07h51.11.062,experiment,2020.2.6,Win32,60,,,-0.00390625,0,1,0,0,fixation,-0.00390625,-0.001302083,1,0,0,text_sentence,0,22,22,28,1
,,,,,,,,,,,,,,0,"[0.31,-0.19]","[-0.31,0.19]","[0.013020833333333334,0.013020833333333334,0.013020833333333334,0.013020833333333334,0.013020833333333334,0.013020833333333334,0.013020833333333334,0.013020833333333334,0.013020833333333334,0.013020833333333334,0.013020833333333334,0.010416666666666666,-0.037760416666666664,-0.07161458333333333,-0.10026041666666667,-0.1328125,-0.15625,-0.16796875,-0.17317708333333334,-0.17317708333333334,-0.17317708333333334,-0.15234375,-0.09765625,-0.018229166666666668,-0.018229166666666668,-0.018229166666666668,-0.018229166666666668,-0.018229166666666668,-0.01953125,-0.17708333333333334,-0.26953125,-0.2799479166666667,-0.2799479166666667,-0.2799479166666667,-0.2786458333333333,-0.2786458333333333,-0.2786458333333333,-0.2942708333333333,-0.31640625,-0.3216145833333333,-0.3216145833333333,-0.3216145833333333]","[-0.00390625,-0.00390625,-0.00390625,-0.00390625,-0.00390625,-0.00390625,-0.00390625,-0.00390625,-0.0026041666666666665,-0.0026041666666666665,-0.0026041666666666665,-0.006510416666666667,-0.05078125,-0.08333333333333333,-0.11848958333333333,-0.15885416666666666,-0.18359375,-0.19401041666666666,-0.19401041666666666,-0.19140625,-0.17057291666666666,-0.08072916666666667,0.11588541666666667,0.28125,0.28125,0.28125,0.28125,0.28125,0.28125,0.2708333333333333,0.2552083333333333,0.2526041666666667,0.25,0.25,0.25,0.24739583333333334,0.234375,0.20442708333333334,0.17317708333333334,0.16666666666666666,0.16666666666666666,0.16666666666666666]","[0.0000950000248849392,0.03911000001244247,0.07558000000426546,0.11470500001451,0.15371000004233792,0.1929799999925308,0.23201000003609806,0.27118500001961365,0.31067000003531575,0.3490650000167079,0.3879150000284426,0.4280049999943003,0.48453000001609325,0.5252949999994598,0.5662149999989197,0.6071100000408478,0.6479800000088289,0.6882800000021234,0.7293599999975413,0.7695950000197627,0.8103950000368059,0.8510200000018813,0.8927300000214018,0.9347950000083074,0.9744000000064261,1.0109950000187382,1.049585000029765,1.088465000037104,1.1281900000176392,1.1859200000180863,1.2271100000361912,1.2683600000455044,1.3087999999988824,1.3485550000332296,1.3856650000088848,1.4355600000126287,1.4762900000205263,1.5176250000367872,1.5581000000238419,1.5993149999994785,1.6389750000089407,1.6758499999996275]",-0.321614583,0.166666667,1,0,0,1.675785,distractor,,,,,,2,30,depression,future,I would feel a lesser person ,0.25,-0.25,-0.25,0.25,R_3fO8cllJOtTYDKf,B,2021-03-07_07h51.11.062,experiment,2020.2.6,Win32,60,,,0.013020833,-0.00390625,1,0,0,fixation,0.013020833,-0.00390625,1,0,0,text_sentence,0,23,23,29,1
,,,,,,,,,,,,,,0,"[-0.22,-0.22]","[0.22,0.22]","[0.0078125,0.0078125,0.0078125,0.0078125,0.0078125,0.0078125,0.0078125,0.0078125,0.0078125,0.0078125,0.0078125,0.0078125,0.0078125,0.0078125,0.0078125,0.0078125,0.0078125,0.0078125,0.0078125,0.0078125,0.0078125,0.010416666666666666,0.0703125,0.11067708333333333,0.12109375,0.12109375,0.12109375,0.12109375,0.11848958333333333,0.09635416666666667,0.07942708333333333,0.078125,0.08072916666666667,0.08854166666666667,0.09244791666666667,0.09765625,0.140625,0.17578125,0.18359375,0.19010416666666666,0.19791666666666666,0.20442708333333334,0.20442708333333334,0.20703125,0.20703125,0.20703125]","[0.0078125,0.0078125,0.0078125,0.0078125,0.0078125,0.0078125,0.0078125,0.0078125,0.0078125,0.0078125,0.0078125,0.0078125,0.0078125,0.0078125,0.0078125,0.0078125,0.0078125,0.0078125,0.0078125,0.0078125,0.0078125,0.013020833333333334,0.11979166666666667,0.17838541666666666,0.1796875,0.17708333333333334,0.17708333333333334,0.17447916666666666,0.16796875,0.08203125,-0.046875,-0.09375,-0.109375,-0.12239583333333333,-0.12239583333333333,-0.1015625,0.05078125,0.14322916666666666,0.16145833333333334,0.17317708333333334,0.18619791666666666,0.19661458333333334,0.19921875,0.20442708333333334,0.20703125,0.20703125]","[0.00015499995788559318,0.04979999997885898,0.08629000000655651,0.12516999995568767,0.1643099999637343,0.20321000000694767,0.24223999999230728,0.2806700000073761,0.3199599999934435,0.3587999999872409,0.3977449999656528,0.4367649999912828,0.47579999995650724,0.5146499999682419,0.5539349999744445,0.5927099999971688,0.6312799999723211,0.6703899999847636,0.709244999976363,0.7483099999953993,0.7873299999628216,0.8269549999968149,0.8678450000006706,0.9190049999742769,0.9595899999840185,0.9999550000065938,1.0397999999695458,1.07658499997342,1.1347099999547936,1.1758200000040233,1.2169799999683164,1.2574449999956414,1.299494999984745,1.340009999985341,1.3804449999588542,1.4209099999861792,1.4615449999691918,1.50252499995986,1.5438800000119954,1.5845099999569356,1.6251549999578856,1.6656549999606796,1.7064749999553896,1.7471800000057556,1.7875749999657273,1.8293999999877997]",0.20703125,0.20703125,1,0,0,1.82926,distractor,,,,,,2,36,neutral,present,He invested a lot in the relationship ,-0.25,-0.25,0.25,0.25,R_3fO8cllJOtTYDKf,B,2021-03-07_07h51.11.062,experiment,2020.2.6,Win32,60,,,0.0078125,0.005208333,1,0,0,fixation,0.0078125,0.0078125,1,0,0,text_sentence,0,24,24,35,1
,,,,,,,,,,,,,,1,"[-0.22,0.28]","[0.22,-0.28]","[-0.005208333333333333,-0.005208333333333333,-0.005208333333333333,-0.005208333333333333,-0.005208333333333333,-0.005208333333333333,-0.005208333333333333,-0.005208333333333333,-0.005208333333333333,-0.005208333333333333,-0.005208333333333333,-0.005208333333333333,-0.005208333333333333,-0.005208333333333333,-0.005208333333333333,-0.005208333333333333,0.022135416666666668,0.046875,0.07942708333333333,0.09765625,0.10286458333333333,0.10416666666666667,0.06770833333333333,0.016927083333333332,-0.01953125,-0.041666666666666664,-0.049479166666666664,-0.055989583333333336,-0.07942708333333333,-0.19270833333333334,-0.30078125,-0.3229166666666667,-0.3216145833333333,-0.3177083333333333,-0.3111979166666667,-0.2916666666666667,-0.2734375,-0.2565104166666667,-0.2552083333333333,-0.24479166666666666,-0.23307291666666666,-0.21614583333333334,-0.21354166666666666,-0.21354166666666666,-0.21354166666666666]","[0.006510416666666667,0.006510416666666667,0.006510416666666667,0.006510416666666667,0.006510416666666667,0.006510416666666667,0.006510416666666667,0.006510416666666667,0.006510416666666667,0.006510416666666667,0.006510416666666667,0.006510416666666667,0.006510416666666667,0.006510416666666667,0.006510416666666667,0.006510416666666667,-0.013020833333333334,-0.029947916666666668,-0.048177083333333336,-0.049479166666666664,-0.033854166666666664,-0.01171875,0.14322916666666666,0.23697916666666666,0.2552083333333333,0.26171875,0.2643229166666667,0.2669270833333333,0.26953125,0.24739583333333334,0.22265625,0.22265625,0.2265625,0.22916666666666666,0.23567708333333334,0.2604166666666667,0.2786458333333333,0.2864583333333333,0.2747395833333333,0.265625,0.2682291666666667,0.28125,0.2825520833333333,0.28515625,0.28515625]","[0.00014000001829117537,0.057465000019874424,0.09399500000290573,0.13287500001024455,0.17149000003701076,0.21046500001102686,0.24970500002382323,0.2885249999817461,0.32789000001503155,0.36679000000003725,0.40540500002680346,0.4442350000026636,0.48319500003708526,0.5221350000356324,0.5614049999858253,0.6008700000238605,0.6416650000028312,0.6937199999811128,0.7343649999820627,0.7749450000119396,0.8157800000044517,0.856629999994766,0.8976399999810383,0.9397750000352971,0.9806049999897368,1.024169999989681,1.0632800000021234,1.1037800000049174,1.144060000020545,1.1848599999793805,1.2258400000282563,1.2668950000079349,1.3079600000055507,1.3485499999951571,1.389740000013262,1.4299400000018068,1.470214999979362,1.510999999998603,1.5527599999913946,1.5933400000212714,1.634139999980107,1.6765850000083447,1.7172750000027008,1.7578250000369735,1.7984249999863096]",-0.213541667,0.28515625,1,0,0,1.798285,target,,,,,,2,40,neutral,present,He came out all guns blazing ,-0.25,0.25,0.25,-0.25,R_3fO8cllJOtTYDKf,B,2021-03-07_07h51.11.062,experiment,2020.2.6,Win32,60,,,-0.006510417,0.006510417,1,0,0,fixation,-0.005208333,0.006510417,1,0,0,text_sentence,0,25,25,39,1
,,,,,,,,,,,,,,0,"[-0.18,-0.18]","[0.18,0.18]","[-0.013020833333333334,-0.013020833333333334,-0.013020833333333334,-0.013020833333333334,-0.013020833333333334,-0.013020833333333334,-0.013020833333333334,-0.013020833333333334,-0.013020833333333334,-0.013020833333333334,-0.013020833333333334,-0.013020833333333334,-0.013020833333333334,-0.013020833333333334,-0.013020833333333334,-0.013020833333333334,-0.014322916666666666,-0.026041666666666668,-0.026041666666666668,-0.0078125,0.029947916666666668,0.05859375,0.08463541666666667,0.08984375,0.09114583333333333,0.09114583333333333,0.09114583333333333,0.09114583333333333,0.09114583333333333,0.09114583333333333,0.11328125,0.140625,0.14322916666666666,0.14322916666666666,0.14322916666666666,0.14322916666666666,0.14973958333333334,0.15494791666666666,0.16015625,0.1640625,0.16536458333333334]","[-0.013020833333333334,-0.01171875,-0.010416666666666666,-0.010416666666666666,-0.010416666666666666,-0.010416666666666666,-0.010416666666666666,-0.010416666666666666,-0.010416666666666666,-0.010416666666666666,-0.010416666666666666,-0.010416666666666666,-0.010416666666666666,-0.010416666666666666,-0.010416666666666666,-0.010416666666666666,-0.009114583333333334,0.018229166666666668,0.040364583333333336,0.07552083333333333,0.12239583333333333,0.14973958333333334,0.15104166666666666,0.14973958333333334,0.1484375,0.1484375,0.1484375,0.1484375,0.1484375,0.1484375,0.15494791666666666,0.16145833333333334,0.15755208333333334,0.15755208333333334,0.15755208333333334,0.15885416666666666,0.16666666666666666,0.171875,0.17447916666666666,0.17708333333333334,0.17838541666666666]","[0.0001449999981559813,0.05500500003108755,0.09678000002168119,0.1359400000073947,0.17253500001970679,0.21153999998932704,0.2518400000408292,0.2906650000368245,0.32946000003721565,0.36837999999988824,0.40733000001637265,0.4464550000266172,0.4856100000324659,0.5247100000269711,0.5649500000290573,0.6036350000067614,0.6429500000085682,0.6898400000063702,0.730199999990873,0.77140500000678,0.8127800000365824,0.8532250000280328,0.8942399999941699,0.9356450000195764,0.9754800000227988,1.0151049999985844,1.0518000000156462,1.0904999999911524,1.1297050000284798,1.1703050000360236,1.210060000012163,1.2577950000413693,1.2999750000308268,1.3385550000239164,1.3750800000270829,1.4147550000343472,1.4753350000246428,1.5156350000179373,1.5575900000403635,1.59818000002997,1.6395400000037625]",0.029947917,0.122395833,1,0,0,0.81265,distractor,,,,,,2,35,neutral,present,She is living on borrowed time ,-0.25,-0.25,0.25,0.25,R_3fO8cllJOtTYDKf,B,2021-03-07_07h51.11.062,experiment,2020.2.6,Win32,60,,,-0.015625,-0.015625,1,0,0,fixation,-0.013020833,-0.013020833,1,0,0,text_sentence,0,26,26,34,1
,,,,,,,,,,,,,,1,"[-0.24,0.26]","[0.24,-0.26]","[-0.006510416666666667,-0.006510416666666667,-0.006510416666666667,-0.006510416666666667,-0.006510416666666667,-0.006510416666666667,-0.006510416666666667,-0.006510416666666667,-0.006510416666666667,-0.006510416666666667,-0.006510416666666667,-0.006510416666666667,-0.006510416666666667,-0.006510416666666667,-0.006510416666666667,-0.006510416666666667,-0.006510416666666667,0.0013020833333333333,0.016927083333333332,0.040364583333333336,0.049479166666666664,0.05078125,0.05078125,0.022135416666666668,-0.046875,-0.09635416666666667,-0.09635416666666667,-0.09635416666666667,-0.09635416666666667,-0.09635416666666667,-0.09635416666666667,-0.09635416666666667,-0.09635416666666667,-0.09635416666666667,-0.09635416666666667,-0.09635416666666667,-0.09635416666666667,-0.09635416666666667,-0.11328125,-0.19140625,-0.21223958333333334,-0.21614583333333334,-0.22135416666666666,-0.23307291666666666,-0.23567708333333334,-0.23567708333333334,-0.23567708333333334,-0.23697916666666666,-0.23697916666666666]","[-0.0013020833333333333,-0.0013020833333333333,-0.0013020833333333333,-0.0013020833333333333,-0.0013020833333333333,-0.0026041666666666665,-0.0026041666666666665,-0.0026041666666666665,-0.0026041666666666665,-0.0026041666666666665,-0.0026041666666666665,-0.0026041666666666665,-0.0026041666666666665,-0.0026041666666666665,-0.0026041666666666665,-0.0026041666666666665,-0.0013020833333333333,0.020833333333333332,0.07161458333333333,0.13932291666666666,0.15885416666666666,0.16276041666666666,0.16145833333333334,0.14973958333333334,0.13020833333333334,0.12239583333333333,0.12239583333333333,0.12239583333333333,0.12239583333333333,0.12239583333333333,0.12239583333333333,0.12239583333333333,0.12239583333333333,0.12239583333333333,0.12239583333333333,0.12239583333333333,0.12239583333333333,0.12239583333333333,0.13932291666666666,0.22395833333333334,0.2526041666666667,0.2669270833333333,0.2669270833333333,0.2669270833333333,0.2669270833333333,0.265625,0.26171875,0.26171875,0.26171875]","[0.00021999998716637492,0.049390000000130385,0.08550499996636063,0.12489499995717779,0.16419499996118248,0.2037999999593012,0.24873999995179474,0.28629999997792765,0.3253899999544956,0.3639449999900535,0.4028399999951944,0.4415949999820441,0.4801399999996647,0.5189050000044517,0.5581099999835715,0.5972049999982119,0.6366149999666959,0.6836299999849871,0.7258249999722466,0.764629999990575,0.8017049999907613,0.8517299999948591,0.8928200000082143,0.9331699999747798,0.9738549999892712,1.0147349999751896,1.0546500000054948,1.0910499999881722,1.130059999995865,1.1692499999771826,1.2084150000009686,1.2476649999734946,1.287609999999404,1.326520000002347,1.365349999978207,1.4046849999576807,1.4434849999961443,1.4820149999577552,1.5215949999983422,1.570064999978058,1.6110800000024028,1.6517449999810196,1.6922100000083447,1.7332399999722838,1.773784999968484,1.8140300000086427,1.8546099999803118,1.895174999954179,1.936379999970086]",-0.236979167,0.26171875,1,0,0,1.93619,target,,,,,,2,37,neutral,present,What a way to spend a day ,-0.25,0.25,0.25,-0.25,R_3fO8cllJOtTYDKf,B,2021-03-07_07h51.11.062,experiment,2020.2.6,Win32,60,,,-0.006510417,-0.005208333,1,0,0,fixation,-0.006510417,-0.001302083,1,0,0,text_sentence,0,27,27,36,1
,,,,,,,,,,,,,,1,"[-0.16999999999999998,0.33]","[0.16999999999999998,-0.33]","[-0.01171875,-0.01171875,-0.01171875,-0.01171875,-0.01171875,-0.01171875,-0.01171875,-0.01171875,-0.01171875,-0.01171875,-0.01171875,-0.01171875,-0.01171875,-0.01171875,-0.01171875,-0.013020833333333334,-0.013020833333333334,-0.013020833333333334,-0.02734375,-0.052083333333333336,-0.14322916666666666,-0.1953125,-0.21354166666666666,-0.21484375,-0.20833333333333334,-0.20572916666666666,-0.20182291666666666,-0.20052083333333334,-0.19921875,-0.1875,-0.18359375,-0.18098958333333334,-0.17708333333333334]","[-0.0013020833333333333,-0.0013020833333333333,-0.0013020833333333333,-0.0013020833333333333,-0.0013020833333333333,-0.0013020833333333333,-0.0013020833333333333,-0.0013020833333333333,-0.0013020833333333333,-0.0013020833333333333,-0.0013020833333333333,-0.0013020833333333333,-0.0013020833333333333,-0.0013020833333333333,-0.0013020833333333333,-0.0013020833333333333,-0.0013020833333333333,0,0.015625,0.055989583333333336,0.15234375,0.21354166666666666,0.25,0.2721354166666667,0.2916666666666667,0.3151041666666667,0.3385416666666667,0.34765625,0.34375,0.3411458333333333,0.33984375,0.3372395833333333,0.3359375]","[0.00018999999156221747,0.05728000000817701,0.09736499999416992,0.13333500002045184,0.1720550000318326,0.21085500001208857,0.24950999999418855,0.2883949999813922,0.3274600000004284,0.36665500001981854,0.4057199999806471,0.4445500000147149,0.4831899999990128,0.5220749999862164,0.5615000000107102,0.601085000031162,0.6573099999804981,0.6944399999920279,0.7424900000332855,0.7831250000162981,0.8238150000106543,0.8653400000184774,0.9051050000125542,0.9460650000255555,0.9869550000294112,1.0274050000007264,1.0688150000059977,1.1087600000319071,1.14974500000244,1.1907950000022538,1.2311399999889545,1.272255000018049,1.3142249999800697]",-0.177083333,0.3359375,1,0,0,1.31406,target,,,,,,2,13,anxiety,past,I could not contain my fears ,-0.25,0.25,0.25,-0.25,R_3fO8cllJOtTYDKf,B,2021-03-07_07h51.11.062,experiment,2020.2.6,Win32,60,,,-0.01171875,-0.001302083,1,0,0,fixation,-0.01171875,-0.001302083,1,0,0,text_sentence,0,28,28,12,1
,,,,,,,,,,,,,,0,"[-0.21,-0.21]","[0.21,0.21]","[-0.014322916666666666,-0.014322916666666666,-0.014322916666666666,-0.014322916666666666,-0.014322916666666666,-0.014322916666666666,-0.014322916666666666,-0.014322916666666666,-0.014322916666666666,-0.014322916666666666,-0.014322916666666666,-0.014322916666666666,-0.014322916666666666,-0.014322916666666666,-0.014322916666666666,-0.015625,-0.016927083333333332,-0.022135416666666668,-0.029947916666666668,-0.033854166666666664,-0.037760416666666664,-0.04296875,-0.052083333333333336,-0.052083333333333336,-0.052083333333333336,-0.052083333333333336,-0.052083333333333336,-0.049479166666666664,0.014322916666666666,0.16536458333333334,0.1953125,0.20572916666666666,0.21223958333333334,0.22005208333333334,0.22526041666666666,0.2265625,0.22526041666666666,0.22135416666666666,0.22005208333333334,0.21875,0.21875]","[-0.0013020833333333333,-0.0013020833333333333,-0.0013020833333333333,-0.0013020833333333333,-0.0013020833333333333,-0.0013020833333333333,-0.0013020833333333333,-0.0013020833333333333,-0.0013020833333333333,-0.0013020833333333333,-0.0013020833333333333,-0.0013020833333333333,-0.0013020833333333333,-0.0013020833333333333,-0.0013020833333333333,-0.0013020833333333333,0,0.0078125,0.046875,0.08072916666666667,0.1171875,0.13671875,0.140625,0.140625,0.140625,0.140625,0.140625,0.14453125,0.1875,0.19791666666666666,0.17708333333333334,0.171875,0.17708333333333334,0.18359375,0.18489583333333334,0.18619791666666666,0.19270833333333334,0.20052083333333334,0.20833333333333334,0.21223958333333334,0.21354166666666666]","[0.00013000000035390258,0.04806500003905967,0.0847650000359863,0.12365000002318993,0.16358000005129725,0.20347000000765547,0.2423500000149943,0.2807800000300631,0.3194850000436418,0.3583700000308454,0.3970750000444241,0.4360950000118464,0.47555500001180917,0.5142950000008568,0.5539250000147149,0.5937550000380725,0.6490800000028685,0.6905300000216812,0.7310600000200793,0.7716550000477582,0.8130150000215508,0.8533150000148453,0.8944900000351481,0.9340000000083819,0.9703549999976531,1.0092200000071898,1.0482900000060908,1.0881300000473857,1.1279900000081398,1.1857400000444613,1.2263000000384636,1.2671100000152364,1.3076100000180304,1.3480600000475533,1.3884100000141189,1.4292150000110269,1.4696400000248104,1.5105400000466034,1.5510099999955855,1.5915200000163168,1.6327250000322238]",0.21875,0.213541667,1,0,0,1.632615,distractor,,,,,,2,25,depression,past,The experience was draining ,-0.25,-0.25,0.25,0.25,R_3fO8cllJOtTYDKf,B,2021-03-07_07h51.11.062,experiment,2020.2.6,Win32,60,,,-0.016927083,-0.002604167,1,0,0,fixation,-0.014322917,-0.001302083,1,0,0,text_sentence,0,29,29,24,1
,,,,,,,,,,,,,,1,"[-0.2,0.3]","[0.2,-0.3]","[0.0026041666666666665,0.0026041666666666665,0.0026041666666666665,0.0026041666666666665,0.0026041666666666665,0.0026041666666666665,0.0026041666666666665,0.0026041666666666665,0.0026041666666666665,0.0026041666666666665,0.0026041666666666665,0.0026041666666666665,0.0026041666666666665,0.0026041666666666665,0.0026041666666666665,0.0026041666666666665,0.0026041666666666665,0.0026041666666666665,0.0026041666666666665,0.0026041666666666665,0.0026041666666666665,0.0026041666666666665,0.0026041666666666665,0.0026041666666666665,0.0026041666666666665,0.0026041666666666665,0.0026041666666666665,0.0026041666666666665,0.0026041666666666665,0.0026041666666666665,0.0026041666666666665,0.0026041666666666665,0.0026041666666666665,0.0026041666666666665,0.0026041666666666665,0.0026041666666666665,0.0026041666666666665,0.0026041666666666665,0.0026041666666666665,0.0026041666666666665,0.0026041666666666665,0.0026041666666666665,0.0026041666666666665,0,-0.13932291666666666,-0.19661458333333334,-0.21354166666666666,-0.21354166666666666,-0.20703125,-0.20572916666666666,-0.203125,-0.20052083333333334,-0.20052083333333334,-0.20182291666666666,-0.20182291666666666,-0.20182291666666666,-0.20182291666666666,-0.20052083333333334,-0.20052083333333334]","[-0.0026041666666666665,-0.0026041666666666665,-0.0026041666666666665,-0.0026041666666666665,-0.0026041666666666665,-0.0026041666666666665,-0.0026041666666666665,-0.0026041666666666665,-0.0026041666666666665,-0.0026041666666666665,-0.0026041666666666665,-0.0026041666666666665,-0.0026041666666666665,-0.0026041666666666665,-0.0026041666666666665,-0.0026041666666666665,-0.0026041666666666665,-0.0026041666666666665,-0.0026041666666666665,-0.0026041666666666665,-0.0026041666666666665,-0.0026041666666666665,-0.0026041666666666665,-0.00390625,-0.00390625,-0.00390625,-0.00390625,-0.00390625,-0.00390625,-0.00390625,-0.00390625,-0.00390625,-0.00390625,-0.00390625,-0.00390625,-0.00390625,-0.00390625,-0.00390625,-0.00390625,-0.00390625,-0.00390625,-0.00390625,-0.00390625,-0.0026041666666666665,0.16927083333333334,0.24348958333333334,0.2747395833333333,0.2981770833333333,0.3268229166666667,0.3372395833333333,0.3411458333333333,0.3463541666666667,0.34375,0.3255208333333333,0.3151041666666667,0.3111979166666667,0.3111979166666667,0.3111979166666667,0.3111979166666667]","[0.00012499996228143573,0.04628999996930361,0.0824249999714084,0.12138999998569489,0.16009499999927357,0.1989899999462068,0.23804499994730577,0.27726000000257045,0.3165349999908358,0.3554549999535084,0.39408499997807667,0.43280499998945743,0.4715699999942444,0.5104049999499694,0.549349999986589,0.5887199999997392,0.6276099999668077,0.6663799999514595,0.7068499999586493,0.7453349999850616,0.7842699999455363,0.8232499999576248,0.8620599999558181,0.901335000002291,0.9400150000001304,0.9790049999719486,1.0182899999781512,1.0572599999723025,1.0958899999968708,1.1346799999591894,1.17367499996908,1.2126399999833666,1.2518649999983609,1.2910999999730848,1.3300949999829754,1.3687499999650754,1.4077749999705702,1.4464999999618158,1.4853299999958836,1.5248049999936484,1.564044999948237,1.603159999998752,1.6419799999566749,1.6830849999678321,1.7346699999761768,1.7751549999811687,1.8155549999792129,1.856499999994412,1.8972549999598414,1.9379099999787286,1.978949999960605,2.0194699999992736,2.0611299999873154,2.101280000002589,2.141479999991134,2.1830449999542907,2.2221949999802746,2.2593099999940023,2.3172649999614805]",-0.200520833,0.34375,1,0,0,2.06103,target,,,,,,2,3,anxiety,past,I was like a cat on a hot tin roof ,-0.25,0.25,0.25,-0.25,R_3fO8cllJOtTYDKf,B,2021-03-07_07h51.11.062,experiment,2020.2.6,Win32,60,,,0.002604167,-0.002604167,1,0,0,fixation,0.002604167,-0.002604167,1,0,0,text_sentence,0,30,30,2,1
,,,,,,,,,,,,,,1,"[0.27,-0.23]","[-0.27,0.23]","[0.022135416666666668,0.022135416666666668,0.022135416666666668,0.022135416666666668,0.022135416666666668,0.022135416666666668,0.022135416666666668,0.022135416666666668,0.02734375,0.041666666666666664,0.078125,0.109375,0.11328125,0.11328125,0.11328125,0.11328125,0.11328125,0.11328125,0.11197916666666667,0.11197916666666667,0.109375,0.10546875,0.10546875,0.12369791666666667,0.23697916666666666,0.2786458333333333,0.2864583333333333,0.2864583333333333,0.2864583333333333,0.2864583333333333,0.2864583333333333]","[-0.020833333333333332,-0.022135416666666668,-0.022135416666666668,-0.022135416666666668,-0.01953125,-0.01953125,-0.01953125,-0.01953125,-0.0234375,-0.045572916666666664,-0.09244791666666667,-0.12630208333333334,-0.12630208333333334,-0.12630208333333334,-0.12630208333333334,-0.12630208333333334,-0.12630208333333334,-0.12630208333333334,-0.12630208333333334,-0.11588541666666667,-0.08463541666666667,-0.028645833333333332,-0.022135416666666668,-0.040364583333333336,-0.1640625,-0.22005208333333334,-0.23046875,-0.23046875,-0.23046875,-0.22916666666666666,-0.2265625]","[0.00015000003622844815,0.039835000003222376,0.07957000000169501,0.1161450000363402,0.15574000001652166,0.19471000001067296,0.23432500002672896,0.2742100000032224,0.31391000002622604,0.35352500004228204,0.40329000004567206,0.44405000004917383,0.4842250000219792,0.5205700000515208,0.5597300000372343,0.5984000000171363,0.6376150000141934,0.6768500000471249,0.7161349999951199,0.7701700000325218,0.8113950000260957,0.8519100000266917,0.8927000000257976,0.9337550000054762,0.9747349999961443,1.0154050000128336,1.0558700000401586,1.0956350000342354,1.132355000008829,1.1719300000113435,1.2214400000520982]",0.286458333,-0.2265625,1,0,0,1.221305,target,,,,,,2,41,neutral,present,I blended into the crowd ,0.25,-0.25,-0.25,0.25,R_3fO8cllJOtTYDKf,B,2021-03-07_07h51.11.062,experiment,2020.2.6,Win32,60,,,-0.002604167,0.00390625,1,0,0,fixation,0.022135417,-0.020833333,1,0,0,text_sentence,0,31,31,40,1
