key_instructions.keys,key_instructions.rt,mouse_fixation_2.x,mouse_fixation_2.y,mouse_fixation_2.leftButton,mouse_fixation_2.midButton,mouse_fixation_2.rightButton,mouse_fixation_2.clicked_name,mouse_sentence_2.x,mouse_sentence_2.y,mouse_sentence_2.leftButton,mouse_sentence_2.midButton,mouse_sentence_2.rightButton,mouse_sentence_2.clicked_name,correct,target_position,distractor_position,mouse_x,mouse_y,mouse_time,mouse.x,mouse.y,mouse.leftButton,mouse.midButton,mouse.rightButton,mouse.time,mouse.clicked_name,trials_3.thisRepN,trials_3.thisTrialN,trials_3.thisN,trials_3.thisIndex,trials_3.ran,list,item,emotion,tense,sentence,target_x,target_y,distract_x,distract_y,participant,condition,date,expName,psychopyVersion,OS,frameRate,key_instructions_2.keys,key_instructions_2.rt,mouse_fixation.x,mouse_fixation.y,mouse_fixation.leftButton,mouse_fixation.midButton,mouse_fixation.rightButton,mouse_fixation.clicked_name,mouse_sentence.x,mouse_sentence.y,mouse_sentence.leftButton,mouse_sentence.midButton,mouse_sentence.rightButton,mouse_sentence.clicked_name,trials.thisRepN,trials.thisTrialN,trials.thisN,trials.thisIndex,trials.ran
space,6.402,0.0025,-0.0025,1,0,0,fixation,0.0025,-0.0025,1,0,0,text_sentence,0,"[0.3,-0.2]","[-0.3,0.2]","[0.0025,0.0025,0.0025,0.0025,0.0025,0.0025,0.0025,0.0025,0.0025,0.0025,0.0025,0.0025,0.0025,0.0025,0.0025,0.0025,0.0025,0.0025,0.0025,0.0025,0.0025,0.0025,0.0025,0.0025,0.0025,0.0025,0.0025,0.0025,0.0025,0.0025,0.0025,0.0025,0.0025,0.0025,0.0025,0.0025,0.0025,0.0025,0.0025,0.0025,0.0025,0.0025,0.0025,0.0025,0.0025,0.0025,0.0025,0.0025,0.0025,0.0025,0.0025,0.0025,0.0025,0.0025,0.0025,0.0025,0.0025,0.0025,0.0025,0.0025,0.0025,0.0025,0.0025,0.0025,0.0025,0.00125,-0.01125,-0.03625,-0.0725,-0.14625,-0.17625,-0.23375,-0.245,-0.26125,-0.26375,-0.26375,-0.26375,-0.26375,-0.26375,-0.26375,-0.26375,-0.265,-0.2675,-0.2675,-0.26875,-0.26875,-0.26875,-0.26875,-0.26875,-0.26875,-0.26875,-0.26875,-0.26875,-0.26875,-0.26875,-0.26875,-0.26875,-0.265,-0.265,-0.26375,-0.26375,-0.26375,-0.265,-0.2675,-0.27125,-0.27625,-0.2825,-0.2875,-0.28875,-0.29125,-0.29125,-0.2925,-0.2925,-0.2925]","[-0.0025,-0.0025,-0.0025,-0.0025,-0.0025,-0.0025,-0.0025,-0.0025,-0.0025,-0.0025,-0.0025,-0.0025,-0.0025,-0.0025,-0.0025,-0.0025,-0.0025,-0.0025,-0.0025,-0.0025,-0.0025,-0.0025,-0.0025,-0.0025,-0.0025,-0.0025,-0.0025,-0.0025,-0.0025,-0.0025,-0.0025,-0.0025,-0.0025,-0.0025,-0.0025,-0.0025,-0.0025,-0.0025,-0.0025,-0.0025,-0.0025,-0.0025,-0.0025,-0.0025,-0.0025,-0.0025,-0.0025,-0.0025,-0.0025,-0.0025,-0.0025,-0.0025,-0.0025,-0.0025,-0.0025,-0.0025,-0.0025,-0.0025,-0.0025,-0.0025,-0.0025,-0.0025,-0.0025,-0.0025,-0.0025,-0.0025,0.00125,0.01625,0.035,0.07125,0.08375,0.115,0.1225,0.13875,0.14375,0.14875,0.15125,0.1625,0.16375,0.17375,0.17625,0.18,0.1825,0.1825,0.18375,0.18375,0.18375,0.18375,0.18375,0.18375,0.18375,0.18375,0.18375,0.18375,0.18375,0.18375,0.18375,0.18125,0.17875,0.17875,0.17875,0.17875,0.17875,0.17875,0.18,0.18375,0.19,0.19625,0.1975,0.2,0.2,0.20125,0.20125,0.20125]","[0.0010000000000012221,0.01699999999999946,0.045000000000001705,0.06300000000000239,0.08200000000000074,0.11400000000000077,0.1479999999999997,0.16600000000000037,0.1960000000000015,0.2140000000000022,0.23100000000000165,0.2480000000000011,0.28100000000000236,0.2989999999999995,0.33000000000000185,0.3460000000000001,0.365000000000002,0.3960000000000008,0.41300000000000026,0.43100000000000094,0.4640000000000022,0.4800000000000004,0.4980000000000011,0.5300000000000011,0.5470000000000006,0.5640000000000001,0.5960000000000001,0.615000000000002,0.6329999999999991,0.6799999999999997,0.6980000000000004,0.7310000000000016,0.7469999999999999,0.7800000000000011,0.7970000000000006,0.8300000000000018,0.8470000000000013,0.8640000000000008,0.897000000000002,0.9299999999999997,0.9510000000000005,1.0139999999999993,1.0300000000000011,1.0650000000000013,1.0800000000000018,1.0990000000000002,1.1310000000000002,1.147000000000002,1.1660000000000004,1.1980000000000004,1.2140000000000022,1.2319999999999993,1.2639999999999993,1.2810000000000024,1.2989999999999995,1.3309999999999995,1.347999999999999,1.3670000000000009,1.397000000000002,1.4130000000000003,1.431000000000001,1.4640000000000022,1.4810000000000016,1.4990000000000023,1.5300000000000011,1.5470000000000006,1.568999999999999,1.5970000000000013,1.6159999999999997,1.6479999999999997,1.6690000000000005,1.6980000000000004,1.718,1.7469999999999999,1.7669999999999995,1.7970000000000006,1.815999999999999,1.847999999999999,1.8670000000000009,1.8979999999999997,1.9160000000000004,1.9469999999999992,1.9640000000000022,1.9830000000000005,2.0139999999999993,2.0330000000000013,2.0650000000000013,2.083000000000002,2.1140000000000008,2.1320000000000014,2.164999999999999,2.184000000000001,2.213000000000001,2.2310000000000016,2.2490000000000023,2.280000000000001,2.3000000000000007,2.3309999999999995,2.349,2.3820000000000014,2.397000000000002,2.4160000000000004,2.4480000000000004,2.466000000000001,2.4849999999999994,2.5139999999999993,2.5330000000000013,2.565999999999999,2.585000000000001,2.6140000000000008,2.6310000000000002,2.664999999999999,2.6799999999999997,2.7020000000000017]",-0.26875,0.18375,1,0,0,2.013,distractor,0,0,0,5,1,prac,6,neutral,present,He invested a lot in the relationship,0.25,-0.25,-0.25,0.25,R_3mmcSVIVecAwJCE,A,2021-04-06_17h20.16.368,experiment,2020.2.6,MacIntel,60,,,,,,,,,,,,,,,,,,,
,,0,-0.00125,1,0,0,fixation,0,-0.00125,1,0,0,text_sentence,1,"[0.26,0.26]","[-0.26,-0.26]","[0,0,0,0,0,0,0,0,0,0,0,0,0,0,0,0,0,0,0,0,0,0,0,0,0.00125,0.01,0.0625,0.105,0.1775,0.19875,0.23,0.23875,0.25125,0.2525,0.25375,0.255,0.25625,0.25625,0.25625,0.25625]","[-0.00125,-0.00125,-0.00125,-0.00125,-0.00125,-0.00125,-0.00125,-0.00125,-0.00125,-0.00125,-0.00125,-0.00125,-0.00125,-0.00125,-0.00125,-0.00125,-0.00125,-0.00125,-0.00125,-0.00125,-0.00125,-0.00125,-0.00125,-0.00125,0.00375,0.015,0.07875,0.1225,0.1875,0.2075,0.23625,0.24375,0.2525,0.25375,0.255,0.25625,0.25625,0.25625,0.25625,0.25625]","[0,0.01699999999999946,0.036000000000001364,0.06700000000000017,0.10000000000000142,0.11599999999999966,0.13500000000000156,0.1670000000000016,0.18299999999999983,0.2010000000000005,0.2339999999999982,0.2510000000000012,0.2680000000000007,0.3009999999999984,0.31899999999999906,0.3500000000000014,0.3689999999999998,0.4009999999999998,0.43400000000000105,0.4510000000000005,0.48600000000000065,0.5159999999999982,0.5330000000000013,0.5519999999999996,0.5839999999999996,0.6020000000000003,0.6329999999999991,0.6529999999999987,0.684000000000001,0.7019999999999982,0.7339999999999982,0.7519999999999989,0.7830000000000013,0.8019999999999996,0.8329999999999984,0.8500000000000014,0.870000000000001,0.8999999999999986,0.9170000000000016,0.9379999999999988]",0.25625,0.25625,1,0,0,0.938,target,0,1,1,1,1,prac,2,anxiety,future,I will be up a height ,0.25,0.25,-0.25,-0.25,R_3mmcSVIVecAwJCE,A,2021-04-06_17h20.16.368,experiment,2020.2.6,MacIntel,60,,,,,,,,,,,,,,,,,,,
,,-0.00375,0.0025,1,0,0,fixation,0.0075,-0.005,1,0,0,text_sentence,1,"[-0.23,0.27]","[0.23,-0.27]","[0.0075,0.0075,0.0075,0.0075,0.0075,0.0075,0.0075,0.0075,0.0075,0.0075,0.0075,0.0075,0.0075,0.0075,0.0075,0.0075,0.0075,0.0075,0.0075,0.0075,0.0075,0.0075,0.0075,0.0075,0.0075,0.0075,0.0075,0.0075,0.0075,-0.00375,-0.035,-0.0775,-0.0925,-0.1525,-0.19125,-0.1975,-0.20125,-0.20125,-0.20125,-0.20375,-0.20625,-0.20625,-0.2075,-0.2075]","[-0.005,-0.005,-0.005,-0.005,-0.005,-0.005,-0.005,-0.005,-0.005,-0.005,-0.005,-0.005,-0.005,-0.005,-0.005,-0.005,-0.005,-0.005,-0.005,-0.005,-0.005,-0.005,-0.005,-0.005,-0.005,-0.005,-0.005,-0.005,-0.005,-0.0025,0.02125,0.06625,0.085,0.1525,0.20625,0.22125,0.2425,0.26375,0.26625,0.26875,0.27,0.27,0.27,0.27125]","[0,0.018000000000000682,0.04899999999999949,0.06500000000000483,0.08299999999999841,0.11599999999999966,0.13100000000000023,0.14999999999999858,0.16799999999999926,0.19900000000000517,0.2190000000000012,0.25,0.26600000000000534,0.2839999999999989,0.3160000000000025,0.3470000000000013,0.3780000000000001,0.4059999999999988,0.43200000000000216,0.45000000000000284,0.48100000000000165,0.49900000000000233,0.5180000000000007,0.5480000000000018,0.5660000000000025,0.5840000000000032,0.615000000000002,0.6310000000000002,0.6480000000000032,0.6829999999999998,0.7040000000000006,0.7330000000000041,0.7590000000000003,0.7809999999999988,0.8160000000000025,0.8329999999999984,0.8710000000000022,0.9029999999999987,0.9260000000000019,0.9470000000000027,0.9830000000000041,0.9990000000000023,1.0180000000000007,1.0489999999999995]",-0.2075,0.27125,1,0,0,1.049,target,0,2,2,4,1,prac,5,neutral,present,I like to bury my head in a book,-0.25,0.25,0.25,-0.25,R_3mmcSVIVecAwJCE,A,2021-04-06_17h20.16.368,experiment,2020.2.6,MacIntel,60,,,,,,,,,,,,,,,,,,,
,,0.00125,0.00125,1,0,0,fixation,0.00125,0.00125,1,0,0,text_sentence,1,"[0.31,-0.19]","[-0.31,0.19]","[0.00125,0.00125,0.00125,0.00125,0.00125,0.00125,0.00125,0.00125,0.00125,0.00125,0.00125,0.00125,0.00125,0.00125,0.00125,0.00125,0.00125,0.00125,0.00125,0.00125,0.00125,0.00125,0.00125,0.00125,0.00125,0.00125,0.03625,0.095,0.14125,0.215,0.245,0.27875,0.28625,0.29125,0.2925,0.2925,0.2925,0.29,0.28875,0.28375,0.28125,0.28125,0.28125,0.28125]","[0.00125,0.00125,0.00125,0.00125,0.00125,0.00125,0.00125,0.00125,0.00125,0.00125,0.00125,0.00125,0.00125,0.00125,0.00125,0.00125,0.00125,0.00125,0.00125,0.00125,0.00125,0.00125,0.00125,0.00125,0.00125,0.00125,-0.0075,-0.03875,-0.075,-0.1425,-0.1725,-0.2,-0.205,-0.2075,-0.2075,-0.2075,-0.2075,-0.205,-0.2,-0.19,-0.18625,-0.185,-0.185,-0.185]","[0.0009999999999976694,0.01999999999999602,0.0519999999999996,0.06700000000000017,0.08599999999999852,0.117999999999995,0.13400000000000034,0.1529999999999987,0.18499999999999517,0.20199999999999818,0.23499999999999943,0.25099999999999767,0.2680000000000007,0.2849999999999966,0.31700000000000017,0.3339999999999961,0.35299999999999443,0.384999999999998,0.402000000000001,0.43499999999999517,0.4510000000000005,0.46999999999999886,0.5019999999999953,0.5189999999999984,0.5509999999999948,0.5679999999999978,0.6009999999999991,0.6169999999999973,0.6359999999999957,0.6679999999999993,0.6869999999999976,0.7179999999999964,0.7369999999999948,0.7680000000000007,0.786999999999999,0.8189999999999955,0.8369999999999962,0.8689999999999998,0.8870000000000005,0.9209999999999994,0.9390000000000001,0.9689999999999941,0.9869999999999948,1.0189999999999984]",0.28125,-0.185,1,0,0,1.018,target,0,3,3,3,1,prac,4,depress,future,Below the surface will be sadness ,0.25,-0.25,-0.25,0.25,R_3mmcSVIVecAwJCE,A,2021-04-06_17h20.16.368,experiment,2020.2.6,MacIntel,60,,,,,,,,,,,,,,,,,,,
,,0.00125,-0.00125,1,0,0,fixation,0.00125,-0.00125,1,0,0,text_sentence,0,"[-0.16,0.33999999999999997]","[0.16,-0.33999999999999997]","[0.00125,0.00125,0.00125,0.00125,0.00125,0.00125,0.00125,0.00125,0.00125,0.00125,0.00125,0.00125,0.00125,0.00125,0.00125,0.00125,0.00125,0.00125,0.00125,0.00125,0.00125,0.00125,0.00125,0.00125,0.00125,0.00125,0.00125,0.00125,0.00125,0.00125,0.00125,0.00125,0.00125,0.00125,0.00125,0.00125,0.00125,0.00125,0.00125,0.00125,0.00125,0.00125,0.00125,0.00125,0.00125,0.00125,0.00125,0.00125,0.00125,0.00125,0.00125,0.00125,0.00125,0.00125,0.00125,0.00125,0.00125,0.00125,0.00125,0.00125,0.00125,0.00125,0.00125,0.00125,0.00125,0.00125,0.00125,0.00125,0.00125,0.00125,0.00125,0.0025,0.02,0.0375,0.06,0.1275,0.14875,0.15625,0.15875,0.16,0.16,0.16,0.16,0.16125,0.16125,0.16125,0.16125,0.16125,0.16,0.16,0.16,0.16]","[-0.00125,-0.00125,-0.00125,-0.00125,-0.00125,-0.00125,-0.00125,-0.00125,-0.00125,-0.00125,-0.00125,-0.00125,-0.00125,-0.00125,-0.00125,-0.00125,-0.00125,-0.00125,-0.00125,-0.00125,-0.00125,-0.00125,-0.00125,-0.00125,-0.00125,-0.00125,-0.00125,-0.00125,-0.00125,-0.00125,-0.00125,-0.00125,-0.00125,-0.00125,-0.00125,-0.00125,-0.00125,-0.00125,-0.00125,-0.00125,-0.00125,-0.00125,-0.00125,-0.00125,-0.00125,-0.00125,-0.00125,-0.00125,-0.00125,-0.00125,-0.00125,-0.00125,-0.00125,-0.00125,-0.00125,-0.00125,-0.00125,-0.00125,-0.00125,-0.00125,-0.00125,-0.00125,-0.00125,-0.00125,-0.00125,-0.00125,-0.00125,-0.00125,-0.00125,-0.00125,-0.00125,-0.00125,-0.02625,-0.05875,-0.1125,-0.27625,-0.33,-0.35375,-0.365,-0.3675,-0.36875,-0.36875,-0.36625,-0.36125,-0.355,-0.3475,-0.34125,-0.33625,-0.32875,-0.32625,-0.32625,-0.32625]","[0,0.016999999999995907,0.03499999999999659,0.054000000000002046,0.08399999999999608,0.10099999999999909,0.11999999999999744,0.14999999999999858,0.1670000000000016,0.1839999999999975,0.21699999999999875,0.23400000000000176,0.25099999999999767,0.269999999999996,0.30100000000000193,0.31700000000000017,0.3339999999999961,0.3549999999999969,0.38299999999999557,0.3999999999999986,0.4159999999999968,0.4350000000000023,0.46699999999999875,0.482999999999997,0.5009999999999977,0.5330000000000013,0.5499999999999972,0.5690000000000026,0.6000000000000014,0.6169999999999973,0.6329999999999956,0.6670000000000016,0.6829999999999998,0.7010000000000005,0.732999999999997,0.7509999999999977,0.7680000000000007,0.8010000000000019,0.8170000000000002,0.8339999999999961,0.8669999999999973,0.8840000000000003,0.902000000000001,0.9339999999999975,0.9510000000000005,0.982999999999997,0.9990000000000023,1.0189999999999984,1.0499999999999972,1.0670000000000002,1.083999999999996,1.100999999999999,1.1340000000000003,1.1509999999999962,1.168999999999997,1.2010000000000005,1.2169999999999987,1.235999999999997,1.266999999999996,1.283999999999999,1.301000000000002,1.3350000000000009,1.350999999999999,1.368000000000002,1.4009999999999962,1.4170000000000016,1.4350000000000023,1.4669999999999987,1.4840000000000018,1.5020000000000024,1.5330000000000013,1.5529999999999973,1.583999999999996,1.6039999999999992,1.6340000000000003,1.6550000000000011,1.686,1.7049999999999983,1.732999999999997,1.7560000000000002,1.7849999999999966,1.8019999999999996,1.833999999999996,1.850999999999999,1.8669999999999973,1.9009999999999962,1.9179999999999993,1.9369999999999976,1.9669999999999987,1.985999999999997,2.0180000000000007,2.033999999999999]",0.16,-0.32625,1,0,0,2.034,distractor,0,4,4,0,1,prac,1,anxiety,past,I was up a height,-0.25,0.25,0.25,-0.25,R_3mmcSVIVecAwJCE,A,2021-04-06_17h20.16.368,experiment,2020.2.6,MacIntel,60,,,,,,,,,,,,,,,,,,,
,,0.00125,0.005,1,0,0,fixation,0.00125,0.005,1,0,0,text_sentence,0,"[-0.2,-0.2]","[0.2,0.2]","[0.00125,0.00125,0.00125,0.00125,0.00125,0.00125,0.00125,0.00125,0.00125,0.00125,0.00125,0.00125,0.00125,0.00125,0.00125,0.00125,0.00125,0.00125,0.00125,0.00125,0.00125,0.00125,0.00125,0.00125,0.00125,0.00125,0.00125,0.00125,0.00125,0.00125,0.00125,0.00125,0.00125,0.00125,0.00125,0.00125,0.00125,0.00125,0.00125,0.00125,0.00125,0.00125,0.00125,0.00125,0.015,0.0425,0.09625,0.12375,0.14,0.15875,0.165,0.1725,0.175,0.17625,0.17625,0.17625,0.17625,0.17625,0.17625,0.17625,0.1775,0.18125,0.185,0.19125,0.19375,0.1975,0.1975,0.1975,0.1975,0.1975,0.1975]","[0.005,0.005,0.005,0.005,0.005,0.005,0.005,0.005,0.005,0.005,0.005,0.005,0.005,0.005,0.005,0.005,0.005,0.005,0.005,0.005,0.005,0.005,0.005,0.005,0.005,0.005,0.005,0.005,0.005,0.005,0.005,0.005,0.005,0.005,0.005,0.005,0.005,0.005,0.005,0.005,0.005,0.005,0.005,0.005,0.01125,0.02625,0.0625,0.0825,0.09625,0.1175,0.125,0.135,0.13625,0.1375,0.13875,0.13875,0.13875,0.13875,0.13875,0.13875,0.1425,0.15375,0.16375,0.185,0.19375,0.2025,0.20375,0.205,0.205,0.205,0.205]","[0,0.021000000000000796,0.04999999999999716,0.08399999999999608,0.10099999999999909,0.13400000000000034,0.15099999999999625,0.1670000000000016,0.2010000000000005,0.21699999999999875,0.23700000000000188,0.2680000000000007,0.28600000000000136,0.31799999999999784,0.33500000000000085,0.3509999999999991,0.38299999999999557,0.4059999999999988,0.4339999999999975,0.4510000000000005,0.4679999999999964,0.48499999999999943,0.5189999999999984,0.5349999999999966,0.5519999999999996,0.5829999999999984,0.6019999999999968,0.6199999999999974,0.6509999999999962,0.6679999999999993,0.6849999999999952,0.7179999999999964,0.7340000000000018,0.7509999999999977,0.7849999999999966,0.8010000000000019,0.8200000000000003,0.8509999999999991,0.8669999999999973,0.8840000000000003,0.902000000000001,0.9349999999999952,0.9510000000000005,0.9699999999999989,1.0009999999999977,1.0189999999999984,1.0519999999999996,1.0670000000000002,1.0859999999999985,1.117999999999995,1.1359999999999957,1.1679999999999993,1.1839999999999975,1.2040000000000006,1.2349999999999994,1.2519999999999953,1.2710000000000008,1.3019999999999996,1.3179999999999978,1.3359999999999985,1.367999999999995,1.3840000000000003,1.4039999999999964,1.4349999999999952,1.4529999999999959,1.4840000000000018,1.5019999999999953,1.519999999999996,1.551000000000002,1.5679999999999978,1.5869999999999962]",0.1975,0.205,1,0,0,1.587,distractor,0,5,5,2,1,prac,3,depress,past,Below the surface was sadness ,-0.25,-0.25,0.25,0.25,R_3mmcSVIVecAwJCE,A,2021-04-06_17h20.16.368,experiment,2020.2.6,MacIntel,60,,,,,,,,,,,,,,,,,,,
,,,,,,,,,,,,,,0,"[-0.21,-0.21]","[0.21,0.21]","[-0.0025,-0.0025,-0.0025,-0.0025,-0.0025,-0.0025,-0.0025,-0.0025,-0.0025,-0.0025,-0.0025,-0.0025,-0.0025,-0.0025,-0.0025,-0.0025,-0.0025,-0.0025,-0.0025,-0.0025,-0.0025,-0.0025,-0.0025,-0.0025,-0.0025,-0.0025,-0.0025,-0.0025,-0.0025,-0.0025,-0.0025,-0.0025,-0.0025,-0.0025,-0.0025,-0.0025,-0.0025,0.005,0.01375,0.0275,0.07,0.09125,0.12625,0.135,0.1475,0.15625,0.1575,0.165,0.16875,0.17125,0.17375,0.17625,0.1775,0.18,0.18125,0.18125]","[-0.00125,-0.00125,-0.00125,-0.00125,-0.00125,-0.00125,-0.00125,-0.00125,-0.00125,-0.00125,-0.00125,-0.00125,-0.00125,-0.00125,-0.00125,-0.00125,-0.00125,-0.00125,-0.00125,-0.00125,-0.00125,-0.00125,-0.00125,-0.00125,-0.00125,-0.00125,-0.00125,-0.00125,-0.00125,-0.00125,-0.00125,-0.00125,-0.00125,-0.00125,-0.00125,-0.00125,-0.00125,0.0075,0.015,0.0275,0.06375,0.0825,0.11875,0.12875,0.1425,0.1525,0.155,0.1675,0.17375,0.1775,0.18125,0.1825,0.185,0.1875,0.18875,0.18875]","[0,0.030999999999998806,0.045999999999999375,0.06499999999999773,0.09700000000000131,0.11399999999999721,0.13100000000000023,0.1630000000000038,0.17999999999999972,0.1980000000000004,0.23100000000000165,0.24600000000000222,0.2640000000000029,0.28300000000000125,0.31400000000000006,0.3299999999999983,0.34900000000000375,0.38000000000000256,0.39699999999999847,0.41499999999999915,0.4480000000000004,0.46399999999999864,0.4819999999999993,0.5140000000000029,0.5300000000000011,0.5480000000000018,0.5810000000000031,0.5990000000000038,0.6310000000000002,0.6480000000000032,0.6670000000000016,0.6970000000000027,0.7139999999999986,0.7310000000000016,0.75,0.7800000000000011,0.796999999999997,0.8310000000000031,0.8470000000000013,0.8669999999999973,0.8980000000000032,0.9170000000000016,0.9470000000000027,0.9639999999999986,0.9849999999999994,1.0150000000000006,1.0320000000000036,1.0649999999999977,1.0799999999999983,1.1000000000000014,1.1310000000000002,1.1480000000000032,1.1670000000000016,1.1980000000000004,1.2180000000000035,1.2469999999999999]",0.18125,0.18875,1,0,0,1.247,distractor,,,,,,1,35,neutral,present,It was a red flag ,-0.25,-0.25,0.25,0.25,R_3mmcSVIVecAwJCE,A,2021-04-06_17h20.16.368,experiment,2020.2.6,MacIntel,60,space,3.808,-0.0025,-0.00125,1,0,0,fixation,-0.0025,-0.00125,1,0,0,text_sentence,0,0,0,34,1
,,,,,,,,,,,,,,1,"[0.33999999999999997,0.33999999999999997]","[-0.33999999999999997,-0.33999999999999997]","[0.01,0.01,0.01,0.01,0.01,0.01,0.01,0.01,0.01,0.01,0.01,0.01,0.01,0.01,0.01,0.01,0.01,0.01,0.01,0.01,0.01,0.02,0.03125,0.04125,0.04375,0.04625,0.0475,0.0475,0.04875,0.04875,0.04875,0.04875,0.04875,0.04875,0.04875,0.04875,0.04875,0.04875,0.04875,0.04875,0.04875,0.04875,0.04875,0.04875,0.04875,0.04875,0.04875,0.04875,0.04875,0.04875,0.04875,0.04875,0.04875,0.04875,0.04875,0.04875,0.04875,0.0525,0.06,0.06875,0.13375,0.1675,0.23125,0.26125,0.29,0.32875,0.34,0.345,0.35375,0.35625,0.3625,0.365,0.365,0.36625,0.36625,0.36625,0.365,0.365,0.365,0.365,0.365,0.365,0.365,0.365,0.365,0.365,0.365,0.365,0.365,0.365,0.365,0.365,0.365,0.36375,0.3625,0.36125,0.36]","[0.00125,0.00125,0.00125,0.00125,0.00125,0.00125,0.00125,0.00125,0.00125,0.00125,0.00125,0.00125,0.00125,0.00125,0.00125,0.00125,0.00125,0.00125,0.00125,0.00125,0.00125,0.01125,0.0225,0.0325,0.035,0.03625,0.0375,0.0375,0.03875,0.03875,0.03875,0.03875,0.03875,0.03875,0.03875,0.03875,0.03875,0.03875,0.03875,0.03875,0.03875,0.03875,0.03875,0.03875,0.03875,0.03875,0.03875,0.03875,0.03875,0.03875,0.03875,0.03875,0.03875,0.03875,0.03875,0.03875,0.03875,0.04125,0.04875,0.05875,0.1225,0.1575,0.22625,0.26,0.29375,0.3425,0.355,0.36125,0.3675,0.37,0.37375,0.375,0.375,0.375,0.375,0.37375,0.37125,0.37125,0.37125,0.37125,0.37125,0.37125,0.37125,0.37125,0.37125,0.37125,0.37125,0.37125,0.37,0.3675,0.3675,0.36625,0.365,0.3625,0.36,0.3575,0.35625]","[0,0.027999999999998693,0.045000000000001705,0.06299999999999528,0.07900000000000063,0.1109999999999971,0.12999999999999545,0.14699999999999847,0.17900000000000205,0.19599999999999795,0.2119999999999962,0.2459999999999951,0.26200000000000045,0.2809999999999988,0.3129999999999953,0.3290000000000006,0.3470000000000013,0.3789999999999978,0.3960000000000008,0.4140000000000015,0.44599999999999795,0.47800000000000153,0.4989999999999952,0.5300000000000011,0.5480000000000018,0.5799999999999983,0.5949999999999989,0.6159999999999997,0.6460000000000008,0.6640000000000015,0.6950000000000003,0.713000000000001,0.7299999999999969,0.7620000000000005,0.7789999999999964,0.7959999999999994,0.8290000000000006,0.8459999999999965,0.8620000000000019,0.894999999999996,0.911999999999999,0.9299999999999997,0.9619999999999962,0.9789999999999992,1.0120000000000005,1.0289999999999964,1.046999999999997,1.0790000000000006,1.0959999999999965,1.1120000000000019,1.1310000000000002,1.1629999999999967,1.179000000000002,1.195999999999998,1.2289999999999992,1.2459999999999951,1.2629999999999981,1.2959999999999994,1.311,1.330999999999996,1.3629999999999995,1.3810000000000002,1.411999999999999,1.4299999999999997,1.4480000000000004,1.4789999999999992,1.4969999999999999,1.5180000000000007,1.5459999999999994,1.5649999999999977,1.5949999999999989,1.6129999999999995,1.631999999999998,1.661999999999999,1.6779999999999973,1.6969999999999956,1.7289999999999992,1.7459999999999951,1.7650000000000006,1.7959999999999994,1.8129999999999953,1.8329999999999984,1.8620000000000019,1.8789999999999978,1.8969999999999985,1.929000000000002,1.9469999999999956,1.9649999999999963,1.9959999999999951,2.016999999999996,2.0459999999999994,2.0659999999999954,2.0970000000000013,2.1159999999999997,2.147999999999996,2.1670000000000016,2.1969999999999956]",0.365,0.37125,1,0,0,1.729,target,,,,,,1,46,neutral,present,They moved the goalposts ,0.25,0.25,-0.25,-0.25,R_3mmcSVIVecAwJCE,A,2021-04-06_17h20.16.368,experiment,2020.2.6,MacIntel,60,,,0.01,0.00125,1,0,0,fixation,0.01,0.00125,1,0,0,text_sentence,0,1,1,45,1
,,,,,,,,,,,,,,1,"[0.33,-0.16999999999999998]","[-0.33,0.16999999999999998]","[0.0075,0.0075,0.0075,0.0075,0.0075,0.0075,0.0075,0.0075,0.0075,0.0075,0.0075,0.0075,0.0075,0.0075,0.0075,0.0075,0.0075,0.0075,0.0075,0.0075,0.0075,0.0075,0.0075,0.0075,0.0075,0.0075,0.0075,0.0075,0.0075,0.0075,0.0075,0.0075,0.0075,0.0075,0.0075,0.0075,0.0075,0.0075,0.0075,0.0075,0.0075,0.0075,0.0075,0.0075,0.0075,0.0075,0.0075,0.0075,0.0075,0.0075,0.0075,0.0075,0.0075,0.0075,0.0075,0.0075,0.0075,0.0075,0.0075,0.0075,0.0075,0.0075,0.0075,0.0075,0.0075,0.00875,0.02875,0.0575,0.0975,0.16875,0.19875,0.22375,0.2275,0.22875,0.23375,0.235,0.2425,0.2475,0.25375,0.26625,0.275,0.28375,0.29375,0.32625,0.34,0.35875,0.3625,0.36375,0.36375,0.36375,0.36375,0.36375,0.3625,0.36,0.35875,0.35875,0.35875,0.35875,0.35875,0.35875,0.35875,0.35875,0.35875,0.35875]","[-0.00625,-0.00625,-0.00625,-0.00625,-0.00625,-0.00625,-0.00625,-0.00625,-0.00625,-0.00625,-0.00625,-0.00625,-0.00625,-0.00625,-0.00625,-0.00625,-0.00625,-0.00625,-0.00625,-0.00625,-0.00625,-0.00625,-0.00625,-0.00625,-0.00625,-0.00625,-0.00625,-0.00625,-0.00625,-0.00625,-0.00625,-0.00625,-0.00625,-0.00625,-0.00625,-0.00625,-0.00625,-0.00625,-0.00625,-0.00625,-0.00625,-0.00625,-0.00625,-0.00625,-0.00625,-0.00625,-0.00625,-0.00625,-0.00625,-0.00625,-0.00625,-0.00625,-0.00625,-0.00625,-0.00625,-0.00625,-0.00625,-0.00625,-0.00625,-0.00625,-0.00625,-0.00625,-0.00625,-0.00625,-0.00625,-0.00625,-0.0175,-0.03375,-0.05625,-0.09375,-0.11375,-0.1325,-0.13625,-0.1375,-0.14,-0.1425,-0.145,-0.14625,-0.14625,-0.14625,-0.14625,-0.1475,-0.14875,-0.155,-0.16,-0.1675,-0.17125,-0.17125,-0.17125,-0.17125,-0.17125,-0.17125,-0.17125,-0.17125,-0.17125,-0.17125,-0.17125,-0.17125,-0.17125,-0.17125,-0.17125,-0.17125,-0.17125,-0.17125]","[0,0.016999999999995907,0.03499999999999659,0.06700000000000017,0.08299999999999841,0.1039999999999992,0.13400000000000034,0.1529999999999987,0.18299999999999983,0.19999999999999574,0.21999999999999886,0.25099999999999767,0.2680000000000007,0.29999999999999716,0.31799999999999784,0.3509999999999991,0.3680000000000021,0.3999999999999986,0.4159999999999968,0.43599999999999994,0.4660000000000011,0.482999999999997,0.5,0.5330000000000013,0.5499999999999972,0.5679999999999978,0.5989999999999966,0.6159999999999997,0.6329999999999956,0.6509999999999962,0.6829999999999998,0.6999999999999957,0.7190000000000012,0.7489999999999952,0.7669999999999959,0.8010000000000019,0.8159999999999954,0.8350000000000009,0.8669999999999973,0.8829999999999956,0.902000000000001,0.9339999999999975,0.9499999999999957,0.9840000000000018,1.0009999999999977,1.0180000000000007,1.051000000000002,1.0670000000000002,1.1000000000000014,1.118000000000002,1.1370000000000005,1.1670000000000016,1.1829999999999998,1.1999999999999957,1.2179999999999964,1.2509999999999977,1.266999999999996,1.2849999999999966,1.304000000000002,1.3350000000000009,1.3500000000000014,1.3829999999999956,1.4009999999999962,1.418999999999997,1.4499999999999957,1.4690000000000012,1.5009999999999977,1.516999999999996,1.5360000000000014,1.5689999999999955,1.5859999999999985,1.6169999999999973,1.6329999999999956,1.6529999999999987,1.6839999999999975,1.7029999999999959,1.7340000000000018,1.7509999999999977,1.769999999999996,1.7999999999999972,1.8189999999999955,1.850999999999999,1.8699999999999974,1.902000000000001,1.9209999999999994,1.9519999999999982,1.9709999999999965,2.0009999999999977,2.016999999999996,2.0349999999999966,2.067,2.085000000000001,2.1060000000000016,2.1340000000000003,2.1529999999999987,2.173000000000002,2.2179999999999964,2.2349999999999994,2.253,2.283999999999999,2.3019999999999996,2.335000000000001,2.3500000000000014,2.3699999999999974]",0.36375,-0.17125,1,0,0,2.001,target,,,,,,1,42,neutral,present,Conversation was flowing ,0.25,-0.25,-0.25,0.25,R_3mmcSVIVecAwJCE,A,2021-04-06_17h20.16.368,experiment,2020.2.6,MacIntel,60,,,0.0075,-0.00625,1,0,0,fixation,0.0075,-0.00625,1,0,0,text_sentence,0,2,2,41,1
,,,,,,,,,,,,,,0,"[-0.21,-0.21]","[0.21,0.21]","[-0.005,-0.005,-0.005,-0.005,-0.005,-0.005,-0.005,-0.005,-0.005,-0.005,-0.005,-0.005,-0.005,-0.005,-0.005,-0.005,-0.005,-0.005,-0.005,-0.005,-0.005,-0.005,-0.005,-0.005,-0.005,-0.005,-0.005,-0.005,-0.005,-0.005,-0.005,-0.005,-0.005,-0.005,-0.005,-0.005,-0.005,-0.005,-0.005,-0.005,-0.005,-0.005,-0.005,-0.005,-0.005,-0.005,-0.005,-0.005,-0.005,-0.005,-0.005,-0.005,-0.005,-0.005,-0.005,-0.005,-0.005,-0.005,-0.005,-0.005,-0.005,-0.005,-0.005,-0.005,0,0.035,0.035,0.125,0.1875,0.195,0.2025,0.205,0.20875,0.21,0.21,0.21,0.21,0.21]","[-0.01,-0.01,-0.01,-0.01,-0.01,-0.01,-0.01,-0.01,-0.01,-0.01,-0.01,-0.01,-0.01,-0.01,-0.01,-0.01,-0.01,-0.01,-0.01,-0.01,-0.01,-0.01,-0.01,-0.01,-0.01,-0.01,-0.01,-0.01,-0.01,-0.01,-0.01,-0.01,-0.01,-0.01,-0.01,-0.01,-0.01,-0.01,-0.01,-0.01,-0.01,-0.01,-0.01,-0.01,-0.01,-0.01,-0.01,-0.01,-0.01,-0.01,-0.01,-0.01,-0.01,-0.01,-0.01,-0.01,-0.01,-0.01,-0.01,-0.01,-0.01,-0.01,-0.01,-0.00375,0.01125,0.05125,0.05125,0.11875,0.165,0.17125,0.18125,0.18625,0.19875,0.20625,0.21125,0.21375,0.215,0.215]","[0,0.016999999999995907,0.04999999999999716,0.06699999999999307,0.08400000000000318,0.11599999999999966,0.13299999999999557,0.15099999999999625,0.18299999999999272,0.20000000000000284,0.21699999999999875,0.25,0.2669999999999959,0.2849999999999966,0.3160000000000025,0.3329999999999984,0.3669999999999902,0.38299999999999557,0.3999999999999915,0.4329999999999927,0.45000000000000284,0.465999999999994,0.4989999999999952,0.5169999999999959,0.5349999999999966,0.5669999999999931,0.5840000000000032,0.5999999999999943,0.617999999999995,0.6499999999999915,0.664999999999992,0.6839999999999975,0.703000000000003,0.7319999999999993,0.75,0.7669999999999959,0.7849999999999966,0.8160000000000025,0.8319999999999936,0.8509999999999991,0.8829999999999956,0.8999999999999915,0.9179999999999922,0.9500000000000028,0.9689999999999941,0.9989999999999952,1.016999999999996,1.0499999999999972,1.066999999999993,1.0840000000000032,1.1169999999999902,1.134999999999991,1.1670000000000016,1.1839999999999975,1.2000000000000028,1.2169999999999987,1.25,1.2659999999999911,1.2849999999999966,1.316999999999993,1.3340000000000032,1.350999999999999,1.3840000000000003,1.3999999999999915,1.4230000000000018,1.4809999999999945,1.492999999999995,1.516999999999996,1.551000000000002,1.570999999999998,1.5999999999999943,1.6189999999999998,1.6509999999999962,1.6700000000000017,1.7000000000000028,1.7180000000000035,1.7509999999999906,1.7659999999999911]",0.21,0.215,1,0,0,1.766,distractor,,,,,,1,24,depression,past,I felt totally deflated ,-0.25,-0.25,0.25,0.25,R_3mmcSVIVecAwJCE,A,2021-04-06_17h20.16.368,experiment,2020.2.6,MacIntel,60,,,-0.005,-0.01,1,0,0,fixation,-0.005,-0.01,1,0,0,text_sentence,0,3,3,23,1
,,,,,,,,,,,,,,1,"[0.35,-0.15]","[-0.35,0.15]","[0.0025,0.0025,0.0025,0.0025,0.0025,0.0025,0.0025,0.0025,0.0025,0.0025,0.0025,0.0025,0.0025,0.0025,0.0025,0.0025,0.0025,0.0025,0.0025,0.0025,0.0025,0.0025,0.0025,0.0025,0.0025,0.0025,0.0025,0.0025,0.0025,0.0025,0.0025,0.0025,0.0025,0.0025,0.0025,0.0025,0.0025,0.0025,0.0025,0.0025,0.0025,0.0025,0.0025,0.0025,0.0025,0.0025,0.0025,0.0025,0.0025,0.0025,0.0025,0.0025,0.0025,0.0025,0.0025,0.0025,0.0025,0.0025,0.0025,0.0025,0.0025,0.0025,0.0025,0.0025,0.0025,0.0025,0.0025,0.01375,0.0275,0.0675,0.16875,0.2025,0.25375,0.26875,0.28625,0.305,0.32375,0.34875,0.35125,0.36375,0.36625,0.3675,0.3675,0.3675,0.3675,0.3675]","[0.0075,0.0075,0.0075,0.0075,0.0075,0.0075,0.0075,0.0075,0.0075,0.0075,0.0075,0.0075,0.0075,0.0075,0.0075,0.0075,0.0075,0.0075,0.0075,0.0075,0.0075,0.0075,0.0075,0.0075,0.0075,0.0075,0.0075,0.0075,0.0075,0.0075,0.0075,0.0075,0.0075,0.0075,0.0075,0.0075,0.0075,0.0075,0.0075,0.0075,0.0075,0.0075,0.0075,0.0075,0.0075,0.0075,0.0075,0.0075,0.0075,0.0075,0.0075,0.0075,0.0075,0.0075,0.0075,0.0075,0.0075,0.0075,0.0075,0.0075,0.0075,0.0075,0.0075,0.0075,0.0075,0.0075,0.0075,0.0075,0.0025,-0.0125,-0.0475,-0.05875,-0.07875,-0.08375,-0.0925,-0.10125,-0.11125,-0.125,-0.12625,-0.13375,-0.13625,-0.1375,-0.13875,-0.13875,-0.14,-0.14]","[0,0.028999999999996362,0.04600000000000648,0.0660000000000025,0.09600000000000364,0.11299999999999955,0.13100000000000023,0.16200000000000614,0.18000000000000682,0.19599999999999795,0.23000000000000398,0.24500000000000455,0.26300000000000523,0.29699999999999704,0.3130000000000024,0.3299999999999983,0.36299999999999955,0.37999999999999545,0.3960000000000008,0.42900000000000205,0.44599999999999795,0.46399999999999864,0.4969999999999999,0.5130000000000052,0.5300000000000011,0.563999999999993,0.5799999999999983,0.5969999999999942,0.6299999999999955,0.6460000000000008,0.6640000000000015,0.695999999999998,0.7129999999999939,0.7309999999999945,0.7630000000000052,0.7789999999999964,0.796999999999997,0.8149999999999977,0.8469999999999942,0.8649999999999949,0.8970000000000056,0.9129999999999967,0.945999999999998,0.9629999999999939,0.9809999999999945,1.0130000000000052,1.0289999999999964,1.0480000000000018,1.0679999999999978,1.0969999999999942,1.1140000000000043,1.1299999999999955,1.1479999999999961,1.1800000000000068,1.195999999999998,1.2150000000000034,1.2459999999999951,1.2630000000000052,1.281000000000006,1.296999999999997,1.3289999999999935,1.3469999999999942,1.3640000000000043,1.3829999999999956,1.4129999999999967,1.429000000000002,1.4479999999999933,1.480000000000004,1.4959999999999951,1.5160000000000053,1.546999999999997,1.5649999999999977,1.5969999999999942,1.6140000000000043,1.6340000000000003,1.6640000000000015,1.6839999999999975,1.7129999999999939,1.7309999999999945,1.7639999999999958,1.7800000000000011,1.813999999999993,1.8299999999999983,1.8499999999999943,1.8810000000000002,1.899000000000001]",0.3675,-0.14,1,0,0,1.899,target,,,,,,1,41,neutral,present,The results were staggering ,0.25,-0.25,-0.25,0.25,R_3mmcSVIVecAwJCE,A,2021-04-06_17h20.16.368,experiment,2020.2.6,MacIntel,60,,,0.0025,0.0075,1,0,0,fixation,0.0025,0.0075,1,0,0,text_sentence,0,4,4,40,1
,,,,,,,,,,,,,,0,"[-0.19,0.31]","[0.19,-0.31]","[-0.005,-0.005,-0.005,-0.005,-0.005,-0.005,-0.005,-0.005,-0.005,-0.005,-0.005,-0.005,-0.005,-0.005,-0.005,-0.005,-0.005,-0.005,-0.005,-0.005,-0.005,-0.005,-0.005,-0.005,-0.005,-0.005,-0.005,0.02625,0.0525,0.11125,0.14625,0.17375,0.18125,0.1875,0.18875,0.195,0.2025,0.20625,0.20875,0.20875,0.20875,0.20875]","[0.0025,0.0025,0.0025,0.0025,0.0025,0.0025,0.0025,0.0025,0.0025,0.0025,0.0025,0.0025,0.0025,0.0025,0.0025,0.0025,0.0025,0.0025,0.0025,0.0025,0.0025,0.0025,0.0025,0.0025,0.0025,0.00125,-0.00875,-0.06,-0.09375,-0.15625,-0.20125,-0.2425,-0.25625,-0.26875,-0.27375,-0.28375,-0.29125,-0.29625,-0.2975,-0.29875,-0.29875,-0.29875]","[0,0.03300000000000125,0.04999999999999716,0.06799999999999784,0.09999999999999432,0.11599999999999966,0.13299999999999557,0.15099999999999625,0.1670000000000016,0.20000000000000284,0.21800000000000352,0.23399999999999466,0.2669999999999959,0.28300000000000125,0.30400000000000205,0.3340000000000032,0.3539999999999992,0.38299999999999557,0.40099999999999625,0.41800000000000637,0.45000000000000284,0.46699999999999875,0.48399999999999466,0.5010000000000048,0.534000000000006,0.5499999999999972,0.5720000000000027,0.6009999999999991,0.6200000000000045,0.6509999999999962,0.6700000000000017,0.7000000000000028,0.7199999999999989,0.7510000000000048,0.7690000000000055,0.7999999999999972,0.820999999999998,0.8499999999999943,0.8689999999999998,0.9009999999999962,0.9159999999999968,0.9369999999999976]",0.20875,-0.29875,1,0,0,0.937,distractor,,,,,,1,6,anxiety,past,Panic stations were on high alert ,-0.25,0.25,0.25,-0.25,R_3mmcSVIVecAwJCE,A,2021-04-06_17h20.16.368,experiment,2020.2.6,MacIntel,60,,,-0.005,0.0025,1,0,0,fixation,-0.005,0.0025,1,0,0,text_sentence,0,5,5,5,1
,,,,,,,,,,,,,,0,"[0.26,-0.24]","[-0.26,0.24]","[0.015,0.015,0.015,0.015,0.015,0.015,0.015,0.015,0.015,0.015,0.015,0.015,0.015,0.015,0.015,0.015,0.015,0.015,0.015,0.015,0.015,0.015,0.015,0.015,0.015,0.015,0.015,0.015,0.015,0.01375,0.00375,-0.04875,-0.085,-0.14875,-0.175,-0.20125,-0.21,-0.22,-0.22375,-0.2275,-0.22875,-0.2325,-0.2325,-0.235,-0.235]","[-0.0075,-0.0075,-0.0075,-0.0075,-0.0075,-0.0075,-0.0075,-0.0075,-0.0075,-0.0075,-0.0075,-0.0075,-0.0075,-0.0075,-0.0075,-0.0075,-0.0075,-0.0075,-0.0075,-0.0075,-0.0075,-0.0075,-0.0075,-0.0075,-0.0075,-0.0075,-0.0075,-0.0075,-0.0075,-0.0075,-0.00375,0.02875,0.0575,0.105,0.1275,0.1525,0.16375,0.17875,0.185,0.19,0.19375,0.2,0.20125,0.20875,0.20875]","[0,0.029000000000010573,0.047000000000011255,0.0800000000000125,0.09600000000000364,0.1150000000000091,0.1460000000000008,0.16200000000000614,0.17900000000000205,0.19900000000001228,0.2289999999999992,0.2469999999999999,0.26400000000001,0.29700000000001125,0.31400000000000716,0.33200000000000784,0.36299999999999955,0.38000000000000966,0.4130000000000109,0.4300000000000068,0.44700000000000273,0.4789999999999992,0.4969999999999999,0.5300000000000011,0.5460000000000065,0.5800000000000125,0.5960000000000036,0.6150000000000091,0.6470000000000056,0.6640000000000015,0.6850000000000023,0.7139999999999986,0.7330000000000041,0.76400000000001,0.7820000000000107,0.8130000000000024,0.8330000000000126,0.8629999999999995,0.8830000000000098,0.9140000000000015,0.9320000000000022,0.9639999999999986,0.9819999999999993,1.0130000000000052,1.0300000000000011]",-0.235,0.20875,1,0,0,1.03,distractor,,,,,,1,23,depression,future,Things will go rapidly downhill ,0.25,-0.25,-0.25,0.25,R_3mmcSVIVecAwJCE,A,2021-04-06_17h20.16.368,experiment,2020.2.6,MacIntel,60,,,0.01375,-0.0075,1,0,0,fixation,0.015,-0.0075,1,0,0,text_sentence,0,6,6,22,1
,,,,,,,,,,,,,,1,"[-0.21,0.29]","[0.21,-0.29]","[-0.01375,-0.01375,-0.01375,-0.01375,-0.01375,-0.01375,-0.01375,-0.01375,-0.01375,-0.01375,-0.01375,-0.01375,-0.01375,-0.01375,-0.01375,-0.01375,-0.01375,-0.01375,-0.01375,-0.01375,-0.01375,-0.01375,-0.01375,-0.01375,-0.01375,-0.01375,-0.01375,-0.01375,-0.015,-0.03375,-0.0575,-0.09125,-0.155,-0.18125,-0.20125,-0.215,-0.2175,-0.22,-0.22,-0.22,-0.22125,-0.2225,-0.2225,-0.2225,-0.2225,-0.2225]","[-0.00875,-0.00875,-0.00875,-0.00875,-0.00875,-0.00875,-0.00875,-0.00875,-0.00875,-0.00875,-0.00875,-0.00875,-0.00875,-0.00875,-0.00875,-0.00875,-0.00875,-0.00875,-0.00875,-0.00875,-0.00875,-0.00875,-0.00875,-0.00875,-0.00875,-0.00875,-0.00875,-0.0075,-0.0025,0.02375,0.05875,0.11125,0.20625,0.24625,0.2725,0.29375,0.29875,0.30375,0.30625,0.3075,0.31125,0.3125,0.31375,0.31375,0.31375,0.31375]","[0,0.018000000000000682,0.04999999999999716,0.0660000000000025,0.08499999999999375,0.11699999999999022,0.13400000000000034,0.15200000000000102,0.18299999999999272,0.20000000000000284,0.21800000000000352,0.25,0.26599999999999113,0.2839999999999918,0.29999999999999716,0.31799999999999784,0.33499999999999375,0.367999999999995,0.38400000000000034,0.40099999999999625,0.41899999999999693,0.4509999999999934,0.4680000000000035,0.48699999999999477,0.5169999999999959,0.5339999999999918,0.5660000000000025,0.5840000000000032,0.6049999999999898,0.6329999999999956,0.6509999999999962,0.6700000000000017,0.7000000000000028,0.7169999999999987,0.7369999999999948,0.7669999999999959,0.7849999999999966,0.8179999999999978,0.8340000000000032,0.8529999999999944,0.8849999999999909,0.902000000000001,0.9350000000000023,0.9509999999999934,0.9699999999999989,1.0019999999999953]",-0.2225,0.31375,1,0,0,1.002,target,,,,,,1,40,neutral,present,It is time to loosen the leash ,-0.25,0.25,0.25,-0.25,R_3mmcSVIVecAwJCE,A,2021-04-06_17h20.16.368,experiment,2020.2.6,MacIntel,60,,,-0.01375,-0.00875,1,0,0,fixation,-0.01375,-0.00875,1,0,0,text_sentence,0,7,7,39,1
,,,,,,,,,,,,,,1,"[0.28,-0.22]","[-0.28,0.22]","[0.0025,0.0025,0.0025,0.0025,0.0025,0.0025,0.0025,0.0025,0.0025,0.0025,0.0025,0.0025,0.0025,0.0025,0.0025,0.0025,0.0025,0.0025,0.0025,0.0025,0.0025,0.0025,0.0025,0.0025,0.0025,0.0025,0.0025,0.0025,0.0025,0.0025,0.0025,0.0025,0.0025,0.0025,0.0025,0.00375,0.00625,0.0125,0.02625,0.0825,0.1225,0.19875,0.2275,0.2625,0.27375,0.28375,0.29,0.295,0.30375,0.30625,0.30875,0.30875,0.30875,0.30875,0.30875]","[-0.00375,-0.00375,-0.00375,-0.00375,-0.00375,-0.00375,-0.00375,-0.00375,-0.00375,-0.00375,-0.00375,-0.00375,-0.00375,-0.00375,-0.00375,-0.00375,-0.00375,-0.00375,-0.00375,-0.00375,-0.00375,-0.00375,-0.00375,-0.00375,-0.00375,-0.00375,-0.00375,-0.00375,-0.00375,-0.00375,-0.00375,-0.00375,-0.00375,-0.00375,-0.00375,-0.00375,-0.00375,-0.005,-0.01,-0.03375,-0.0525,-0.1,-0.12375,-0.15875,-0.17375,-0.19125,-0.20125,-0.21125,-0.22375,-0.2275,-0.23,-0.23,-0.23,-0.23,-0.23]","[0,0.019000000000005457,0.03700000000000614,0.0660000000000025,0.08300000000001262,0.10200000000000387,0.13300000000000978,0.1490000000000009,0.1670000000000016,0.20100000000000762,0.21700000000001296,0.23400000000000887,0.2670000000000101,0.284000000000006,0.3020000000000067,0.3330000000000126,0.3509999999999991,0.38400000000000034,0.40100000000001046,0.4210000000000065,0.45000000000000284,0.4660000000000082,0.5010000000000048,0.5170000000000101,0.5360000000000014,0.5670000000000073,0.5830000000000126,0.6020000000000039,0.6330000000000098,0.6500000000000057,0.6670000000000016,0.6850000000000023,0.717000000000013,0.7349999999999994,0.7520000000000095,0.784000000000006,0.804000000000002,0.8340000000000032,0.8520000000000039,0.8840000000000003,0.902000000000001,0.9340000000000117,0.953000000000003,0.9840000000000089,1.0030000000000001,1.0330000000000013,1.051000000000002,1.0690000000000026,1.1000000000000085,1.1189999999999998,1.152000000000001,1.166000000000011,1.1870000000000118,1.217000000000013,1.233000000000004]",0.30875,-0.23,1,0,0,1.233,target,,,,,,1,31,depression,future,I will descend into oblivion ,0.25,-0.25,-0.25,0.25,R_3mmcSVIVecAwJCE,A,2021-04-06_17h20.16.368,experiment,2020.2.6,MacIntel,60,,,-0.0075,0.01875,1,0,0,fixation,0.0025,-0.00375,1,0,0,text_sentence,0,8,8,30,1
,,,,,,,,,,,,,,1,"[-0.23,0.27]","[0.23,-0.27]","[0,0,0,0,0,0,0,0,0,0,0,0,0,0,0,0,0,0,0,0,0,-0.00125,-0.00625,-0.00625,-0.0075,-0.0075,-0.0075,-0.0075,-0.0075,-0.0075,-0.0075,-0.0075,-0.0075,-0.0075,-0.0075,-0.0075,-0.015,-0.0575,-0.0875,-0.13625,-0.15375,-0.175,-0.1825,-0.19,-0.19625,-0.1975,-0.20125,-0.2025,-0.205,-0.20625,-0.2075]","[0.00625,0.00625,0.00625,0.00625,0.00625,0.00625,0.00625,0.00625,0.00625,0.00625,0.00625,0.00625,0.00625,0.00625,0.00625,0.00625,0.00625,0.00625,0.00625,0.00625,0.00625,0.0075,0.01,0.01125,0.0125,0.0125,0.0125,0.0125,0.0125,0.0125,0.0125,0.0125,0.0125,0.0125,0.0125,0.0125,0.015,0.04625,0.07375,0.13375,0.15875,0.19375,0.2075,0.2225,0.2375,0.2425,0.24875,0.25125,0.25375,0.25375,0.255]","[0,0.028000000000005798,0.045000000000001705,0.06499999999999773,0.09600000000000364,0.11199999999999477,0.13100000000000023,0.16400000000000148,0.17900000000000205,0.21300000000000807,0.23000000000000398,0.24800000000000466,0.27899999999999636,0.2960000000000065,0.31400000000000716,0.34600000000000364,0.3640000000000043,0.3810000000000002,0.4129999999999967,0.42900000000000205,0.44599999999999795,0.4650000000000034,0.4969999999999999,0.5139999999999958,0.546999999999997,0.5649999999999977,0.5949999999999989,0.6119999999999948,0.632000000000005,0.6629999999999967,0.6800000000000068,0.6980000000000075,0.7289999999999992,0.7469999999999999,0.7639999999999958,0.7960000000000065,0.8160000000000025,0.8470000000000084,0.8640000000000043,0.8970000000000056,0.9150000000000063,0.9480000000000075,0.9620000000000033,0.9830000000000041,1.0139999999999958,1.0330000000000013,1.0630000000000024,1.081000000000003,1.1129999999999995,1.1329999999999956,1.1629999999999967]",-0.2075,0.255,1,0,0,1.163,target,,,,,,1,10,anxiety,past,I was a nervous wreck ,-0.25,0.25,0.25,-0.25,R_3mmcSVIVecAwJCE,A,2021-04-06_17h20.16.368,experiment,2020.2.6,MacIntel,60,,,0,0.00625,1,0,0,fixation,0,0.00625,1,0,0,text_sentence,0,9,9,9,1
,,,,,,,,,,,,,,1,"[0.32,0.32]","[-0.32,-0.32]","[0.005,0.005,0.005,0.005,0.005,0.005,0.005,0.005,0.005,0.005,0.005,0.005,0.005,0.005,0.005,0.005,0.005,0.005,0.005,0.005,0.005,0.005,0.005,0.005,0.005,0.005,0.0475,0.12875,0.22125,0.24625,0.27,0.29,0.2975,0.30125,0.30625,0.30875,0.31375,0.315,0.3175,0.31875,0.31875]","[-0.00125,-0.00125,-0.00125,-0.00125,-0.00125,-0.00125,-0.00125,-0.00125,-0.00125,-0.00125,-0.00125,-0.00125,-0.00125,-0.00125,-0.00125,-0.00125,-0.00125,-0.00125,-0.00125,-0.00125,-0.00125,-0.00125,-0.00125,-0.00125,-0.00125,0.00125,0.045,0.12375,0.22875,0.25625,0.285,0.305,0.31125,0.315,0.31875,0.31875,0.32,0.32,0.32,0.31875,0.3175]","[0,0.016999999999995907,0.03499999999999659,0.06699999999999307,0.08399999999998897,0.10299999999999443,0.13399999999998613,0.15099999999999625,0.1839999999999975,0.2009999999999934,0.2189999999999941,0.25099999999999056,0.2669999999999959,0.28299999999998704,0.3009999999999877,0.31799999999999784,0.3499999999999943,0.3669999999999902,0.3849999999999909,0.41799999999999216,0.4339999999999975,0.4509999999999934,0.4689999999999941,0.5009999999999906,0.5159999999999911,0.5359999999999872,0.5679999999999978,0.5859999999999985,0.6169999999999902,0.6349999999999909,0.6519999999999868,0.6839999999999975,0.7019999999999982,0.7219999999999942,0.7519999999999953,0.769999999999996,0.7999999999999972,0.8189999999999884,0.8509999999999991,0.8689999999999998,0.9009999999999962]",0.31875,0.3175,1,0,0,0.901,target,,,,,,1,5,anxiety,future,The thought will drive me up the wall ,0.25,0.25,-0.25,-0.25,R_3mmcSVIVecAwJCE,A,2021-04-06_17h20.16.368,experiment,2020.2.6,MacIntel,60,,,0.005,-0.00125,1,0,0,fixation,0.005,-0.00125,1,0,0,text_sentence,0,10,10,4,1
,,,,,,,,,,,,,,1,"[0.33999999999999997,0.33999999999999997]","[-0.33999999999999997,-0.33999999999999997]","[0.01375,0.01375,0.01375,0.01375,0.01375,0.01375,0.01375,0.01375,0.01375,0.01375,0.01375,0.01375,0.01375,0.01375,0.01375,0.01375,0.01375,0.01375,0.01375,0.01375,0.01375,0.01375,0.01375,0.01375,0.01375,0.01375,0.01375,0.01375,0.01375,0.01375,0.01375,0.01375,0.01375,0.01375,0.01375,0.01375,0.01375,0.01375,0.01375,0.03375,0.07,0.12125,0.2425,0.3075,0.3725,0.3875,0.40875,0.41375,0.41875,0.42,0.42,0.42,0.4125,0.4025,0.3875,0.3725,0.37,0.36875,0.3675,0.3675,0.3675,0.3675]","[0,0,0,0,0,0,0,0,0,0,0,0,0,0,0,0,0,0,0,0,0,0,0,0,0,0,0,0,0,0,0,0,0,0,0,0,0,0,0,0.0225,0.06,0.115,0.2425,0.3125,0.3775,0.39,0.4075,0.41,0.4125,0.4125,0.4125,0.4125,0.4025,0.39375,0.37625,0.36125,0.35875,0.35625,0.35625,0.35625,0.355,0.355]","[0,0.031999999999996476,0.04999999999999716,0.0660000000000025,0.0969999999999942,0.11400000000000432,0.13299999999999557,0.16500000000000625,0.1799999999999926,0.1979999999999933,0.23099999999999454,0.24800000000000466,0.26500000000000057,0.2980000000000018,0.31399999999999295,0.33100000000000307,0.3649999999999949,0.382000000000005,0.4000000000000057,0.4309999999999974,0.4479999999999933,0.4650000000000034,0.49800000000000466,0.5139999999999958,0.5310000000000059,0.5649999999999977,0.5810000000000031,0.597999999999999,0.6149999999999949,0.6479999999999961,0.6640000000000015,0.6820000000000022,0.7150000000000034,0.730000000000004,0.7480000000000047,0.7819999999999965,0.8010000000000019,0.8299999999999983,0.8490000000000038,0.8810000000000002,0.8970000000000056,0.9170000000000016,0.9489999999999981,0.9669999999999987,0.9989999999999952,1.0180000000000007,1.046999999999997,1.0679999999999978,1.0969999999999942,1.1170000000000044,1.1479999999999961,1.1640000000000015,1.198999999999998,1.2150000000000034,1.2349999999999994,1.2650000000000006,1.2830000000000013,1.313999999999993,1.3319999999999936,1.3499999999999943,1.3810000000000002,1.3979999999999961]",0.3675,0.355,1,0,0,1.399,target,,,,,,1,15,anxiety,future,I would not be able to shake the nervous feeling ,0.25,0.25,-0.25,-0.25,R_3mmcSVIVecAwJCE,A,2021-04-06_17h20.16.368,experiment,2020.2.6,MacIntel,60,,,0.01375,0,1,0,0,fixation,0.01375,0,1,0,0,text_sentence,0,11,11,14,1
,,,,,,,,,,,,,,1,"[-0.18,-0.18]","[0.18,0.18]","[-0.00375,-0.00375,-0.00375,-0.00375,-0.00375,-0.00375,-0.00375,-0.00375,-0.00375,-0.00375,-0.00375,-0.00375,-0.00375,-0.00375,-0.00375,-0.00375,-0.00375,-0.00375,-0.00375,-0.00375,-0.00375,-0.00375,-0.00375,-0.00375,-0.00375,-0.00375,-0.00375,-0.00375,-0.00375,-0.00375,-0.00375,-0.00375,-0.00375,-0.00375,-0.00375,-0.00375,-0.00375,-0.00375,-0.01125,-0.05375,-0.07375,-0.115,-0.12625,-0.14,-0.14375,-0.145,-0.145,-0.1475,-0.15125,-0.15375,-0.16,-0.16125,-0.16125]","[0.0025,0.0025,0.0025,0.0025,0.0025,0.0025,0.0025,0.0025,0.0025,0.0025,0.0025,0.0025,0.0025,0.0025,0.0025,0.0025,0.0025,0.0025,0.0025,0.0025,0.0025,0.0025,0.0025,0.0025,0.0025,0.0025,0.0025,0.0025,0.0025,0.0025,0.0025,0.0025,0.0025,0.0025,0.0025,0.00375,0.00375,0.00625,0.00125,-0.0475,-0.0725,-0.12125,-0.1325,-0.1475,-0.15125,-0.15125,-0.15125,-0.15625,-0.16125,-0.165,-0.17125,-0.17125,-0.1725]","[0,0.016999999999995907,0.03699999999999193,0.0660000000000025,0.08199999999999363,0.10099999999999909,0.13299999999999557,0.14999999999999147,0.1670000000000016,0.20000000000000284,0.21599999999999397,0.23299999999998988,0.25,0.2819999999999965,0.29999999999999716,0.31699999999999307,0.33199999999999363,0.3669999999999902,0.3819999999999908,0.3990000000000009,0.4329999999999927,0.45000000000000284,0.4689999999999941,0.5,0.5169999999999959,0.5349999999999966,0.5660000000000025,0.5840000000000032,0.6019999999999897,0.6340000000000003,0.6499999999999915,0.6659999999999968,0.7000000000000028,0.7169999999999987,0.7349999999999994,0.7659999999999911,0.7890000000000015,0.8169999999999931,0.8370000000000033,0.8669999999999902,0.8849999999999909,0.9170000000000016,0.9359999999999928,0.9689999999999941,0.9869999999999948,1.0159999999999911,1.0339999999999918,1.066999999999993,1.0840000000000032,1.1039999999999992,1.1329999999999956,1.152000000000001,1.1829999999999927]",-0.16125,-0.1725,1,0,0,1.183,target,,,,,,1,18,depression,past,I fell into the abyss ,-0.25,-0.25,0.25,0.25,R_3mmcSVIVecAwJCE,A,2021-04-06_17h20.16.368,experiment,2020.2.6,MacIntel,60,,,-0.00375,0.0025,1,0,0,fixation,-0.00375,0.0025,1,0,0,text_sentence,0,12,12,17,1
,,,,,,,,,,,,,,0,"[-0.21,0.29]","[0.21,-0.29]","[0.0025,0.0025,0.0025,0.0025,0.0025,0.0025,0.0025,0.0025,0.0025,0.0025,0.0025,0.0025,0.0025,0.0025,0.0025,0.0025,0.0025,0.0025,0.0025,0.0025,0.0025,0.0025,0.0025,0.0025,0.0025,0.0025,0.0025,0.0025,0.0025,0.0025,0.0025,0.0025,0.0025,0.0025,0.0025,0.0025,0.0025,0.0025,0.0025,0.0025,0.0025,0.0025,0.0025,0.0025,0.0025,0.0025,0.0025,0.0025,0.0025,0.0025,0.0025,0.0025,0.0025,0.0025,0.0025,0.0025,0.0025,0.0025,0.0025,0.00375,0.0075,0.03375,0.05625,0.1225,0.1625,0.195,0.20125,0.20625,0.2075,0.21,0.215,0.21625,0.21875,0.22,0.22,0.22,0.22]","[0.00125,0.00125,0.00125,0.00125,0.00125,0.00125,0.00125,0.00125,0.00125,0.00125,0.00125,0.00125,0.00125,0.00125,0.00125,0.00125,0.00125,0.00125,0.00125,0.00125,0.00125,0.00125,0.00125,0.00125,0.00125,0.00125,0.00125,0.00125,0.00125,0.00125,0.00125,0.00125,0.00125,0.00125,0.00125,0.00125,0.00125,0.00125,0.00125,0.00125,0.00125,0.00125,0.00125,0.00125,0.00125,0.00125,0.00125,0.00125,0.00125,0.00125,0.00125,0.00125,0.00125,0.00125,0.00125,0.00125,0.00125,0.00125,0.00125,0.00125,0,-0.02375,-0.05125,-0.14375,-0.20625,-0.25625,-0.2675,-0.2775,-0.2825,-0.28875,-0.3,-0.30375,-0.3075,-0.3075,-0.30875,-0.30875,-0.30875]","[0,0.030000000000001137,0.04800000000000182,0.08100000000000307,0.09600000000000364,0.13100000000000023,0.1460000000000008,0.1629999999999967,0.19700000000000273,0.21300000000000807,0.23000000000000398,0.2469999999999999,0.26500000000000057,0.29699999999999704,0.31400000000000716,0.33100000000000307,0.36299999999999955,0.37999999999999545,0.39799999999999613,0.42900000000000205,0.44700000000000273,0.46300000000000807,0.4819999999999993,0.5139999999999958,0.5300000000000011,0.5490000000000066,0.5810000000000031,0.5970000000000084,0.6140000000000043,0.6470000000000056,0.6640000000000015,0.6830000000000069,0.7139999999999986,0.730000000000004,0.7480000000000047,0.7810000000000059,0.796999999999997,0.8149999999999977,0.8470000000000084,0.8640000000000043,0.8810000000000002,0.9140000000000015,0.9300000000000068,0.9489999999999981,0.9809999999999945,0.9969999999999999,1.016999999999996,1.046999999999997,1.0640000000000072,1.0820000000000078,1.1149999999999949,1.132000000000005,1.1640000000000015,1.1809999999999974,1.1980000000000075,1.2180000000000035,1.2469999999999999,1.2650000000000006,1.2980000000000018,1.3140000000000072,1.335000000000008,1.3640000000000043,1.3840000000000003,1.4140000000000015,1.4339999999999975,1.4639999999999986,1.4819999999999993,1.5139999999999958,1.531000000000006,1.5520000000000067,1.5820000000000078,1.5999999999999943,1.632000000000005,1.6500000000000057,1.6800000000000068,1.6980000000000075,1.7319999999999993]",0.22,-0.30875,1,0,0,1.732,distractor,,,,,,1,4,anxiety,past,I was bouncing off the ceiling ,-0.25,0.25,0.25,-0.25,R_3mmcSVIVecAwJCE,A,2021-04-06_17h20.16.368,experiment,2020.2.6,MacIntel,60,,,0.0025,0.00125,1,0,0,fixation,0.0025,0.00125,1,0,0,text_sentence,0,13,13,3,1
,,,,,,,,,,,,,,0,"[0.26,0.26]","[-0.26,-0.26]","[-0.00625,-0.00625,-0.00625,-0.00625,-0.00625,-0.00625,-0.00625,-0.00625,-0.00625,-0.00625,-0.00625,-0.00625,-0.00625,-0.00625,-0.00625,-0.00625,-0.00625,-0.00625,-0.00625,-0.00625,-0.00625,-0.00625,-0.00625,-0.00625,-0.01375,-0.025,-0.0625,-0.0975,-0.125,-0.13375,-0.1475,-0.1625,-0.16875,-0.175,-0.18875,-0.19625,-0.2075,-0.2125,-0.21625,-0.21625,-0.2275,-0.23,-0.23375,-0.23625,-0.2375,-0.23875]","[-0.00875,-0.00875,-0.00875,-0.00875,-0.00875,-0.00875,-0.00875,-0.00875,-0.00875,-0.00875,-0.00875,-0.00875,-0.00875,-0.00875,-0.00875,-0.00875,-0.00875,-0.00875,-0.00875,-0.00875,-0.00875,-0.00875,-0.00875,-0.00875,-0.01625,-0.0275,-0.07875,-0.12625,-0.15875,-0.17,-0.185,-0.19875,-0.20375,-0.21,-0.21875,-0.225,-0.23125,-0.23375,-0.23625,-0.23625,-0.24625,-0.2475,-0.24875,-0.25125,-0.2525,-0.2525]","[0,0.01799999999998647,0.04999999999999716,0.06799999999999784,0.10099999999999909,0.117999999999995,0.1349999999999909,0.16799999999999216,0.18299999999999272,0.2009999999999934,0.23399999999999466,0.25099999999999056,0.26799999999998647,0.3009999999999877,0.31699999999999307,0.3329999999999984,0.3499999999999943,0.367999999999995,0.3999999999999915,0.41799999999999216,0.43599999999999284,0.46699999999999875,0.48399999999999466,0.5019999999999953,0.5339999999999918,0.5549999999999926,0.583999999999989,0.6039999999999992,0.6340000000000003,0.6499999999999915,0.6689999999999969,0.6999999999999886,0.7179999999999893,0.7369999999999948,0.7679999999999865,0.7859999999999872,0.8179999999999978,0.8369999999999891,0.867999999999995,0.8859999999999957,0.9169999999999874,0.9349999999999881,0.9539999999999935,0.9849999999999994,1.0030000000000001,1.032999999999987]",-0.23875,-0.2525,1,0,0,1.033,distractor,,,,,,1,7,anxiety,future,It would send my nerves through the roof ,0.25,0.25,-0.25,-0.25,R_3mmcSVIVecAwJCE,A,2021-04-06_17h20.16.368,experiment,2020.2.6,MacIntel,60,,,-0.00625,-0.00875,1,0,0,fixation,-0.00625,-0.00875,1,0,0,text_sentence,0,14,14,6,1
,,,,,,,,,,,,,,0,"[-0.16,-0.16]","[0.16,0.16]","[0.00875,0.00875,0.00875,0.00875,0.00875,0.00875,0.00875,0.00875,0.00875,0.00875,0.00875,0.00875,0.00875,0.00875,0.00875,0.00875,0.00875,0.00875,0.00875,0.00875,0.00875,0.00875,0.00875,0.00875,0.00875,0.00875,0.00875,0.00875,0.00875,0.00875,0.00875,0.00875,0.00875,0.00875,0.00875,0.00875,0.00875,0.00875,0.00875,0.00875,0.00875,0.00875,0.00875,0.00875,0.01375,0.0325,0.0925,0.115,0.14125,0.1475,0.15375,0.1575,0.15875,0.16125,0.1625,0.1625,0.1625]","[-0.015,-0.015,-0.015,-0.015,-0.015,-0.015,-0.015,-0.015,-0.015,-0.015,-0.015,-0.015,-0.015,-0.015,-0.015,-0.015,-0.015,-0.015,-0.015,-0.015,-0.015,-0.015,-0.015,-0.015,-0.015,-0.015,-0.015,-0.015,-0.015,-0.015,-0.015,-0.015,-0.015,-0.015,-0.015,-0.015,-0.015,-0.015,-0.015,-0.015,-0.015,-0.015,-0.015,-0.015,-0.00625,0.0175,0.07,0.08875,0.1125,0.11875,0.12625,0.13,0.13125,0.13375,0.13375,0.13375,0.13375]","[0,0.018000000000000682,0.036000000000001364,0.0660000000000025,0.08499999999999375,0.10299999999999443,0.1349999999999909,0.15200000000000102,0.1670000000000016,0.1839999999999975,0.20199999999999818,0.21699999999999875,0.25099999999999056,0.2680000000000007,0.28600000000000136,0.3049999999999926,0.333999999999989,0.3509999999999991,0.3689999999999998,0.402000000000001,0.41799999999999216,0.4509999999999934,0.4679999999999893,0.48399999999999466,0.5180000000000007,0.5349999999999966,0.5549999999999926,0.583999999999989,0.6019999999999897,0.6209999999999951,0.6509999999999962,0.6689999999999969,0.6859999999999928,0.7169999999999987,0.7349999999999994,0.7519999999999953,0.7839999999999918,0.8019999999999925,0.8179999999999978,0.8509999999999991,0.8689999999999998,0.9009999999999962,0.9170000000000016,0.938999999999993,0.9679999999999893,0.9879999999999995,1.0180000000000007,1.0379999999999967,1.0699999999999932,1.0849999999999937,1.117999999999995,1.1340000000000003,1.1529999999999916,1.1850000000000023,1.2049999999999983,1.2339999999999947,1.2519999999999953]",0.1625,0.13375,1,0,0,1.252,distractor,,,,,,1,30,depression,past,I felt a lesser person ,-0.25,-0.25,0.25,0.25,R_3mmcSVIVecAwJCE,A,2021-04-06_17h20.16.368,experiment,2020.2.6,MacIntel,60,,,0.00875,-0.015,1,0,0,fixation,0.00875,-0.015,1,0,0,text_sentence,0,15,15,29,1
,,,,,,,,,,,,,,0,"[-0.16999999999999998,-0.16999999999999998]","[0.16999999999999998,0.16999999999999998]","[0.00875,0.00875,0.00875,0.00875,0.00875,0.00875,0.00875,0.00875,0.00875,0.00875,0.00875,0.00875,0.00875,0.00875,0.00875,0.00875,0.00875,0.00875,0.00875,0.00875,0.00875,0.00875,0.00875,0.00875,0.00875,0.00875,0.00875,0.00875,0.00875,0.00875,0.00875,0.00875,0.00875,0.00875,0.00875,0.00875,0.00875,0.00875,0.00875,0.00875,0.00875,0.00875,0.00875,0.00875,0.00875,0.00875,0.015,0.04875,0.08125,0.135,0.15125,0.17,0.17125,0.17125,0.17125,0.17125,0.17125,0.17125,0.17125,0.17125,0.17125,0.17125]","[-0.00375,-0.00375,-0.00375,-0.00375,-0.00375,-0.00375,-0.00375,-0.00375,-0.00375,-0.00375,-0.00375,-0.00375,-0.00375,-0.00375,-0.00375,-0.00375,-0.00375,-0.00375,-0.00375,-0.00375,-0.00375,-0.00375,-0.00375,-0.00375,-0.00375,-0.00375,-0.00375,-0.00375,-0.00375,-0.00375,-0.00375,-0.00375,-0.00375,-0.00375,-0.00375,-0.00375,-0.00375,-0.00375,-0.00375,-0.00375,-0.00375,-0.00375,-0.00375,-0.00375,-0.00375,-0.00375,0.01,0.045,0.07125,0.10875,0.12125,0.13375,0.135,0.135,0.13625,0.13625,0.13625,0.13625,0.1375,0.13875,0.14,0.14]","[0,0.016000000000005343,0.03499999999999659,0.06700000000000728,0.08299999999999841,0.09999999999999432,0.13299999999999557,0.15000000000000568,0.1670000000000016,0.20000000000000284,0.21800000000000352,0.23499999999999943,0.2669999999999959,0.284000000000006,0.3170000000000073,0.3340000000000032,0.35200000000000387,0.382000000000005,0.4000000000000057,0.4159999999999968,0.44899999999999807,0.46699999999999875,0.48499999999999943,0.5160000000000053,0.5330000000000013,0.5670000000000073,0.5840000000000032,0.6009999999999991,0.6340000000000003,0.6500000000000057,0.6689999999999969,0.7009999999999934,0.7169999999999987,0.7360000000000042,0.7680000000000007,0.7830000000000013,0.7999999999999972,0.8170000000000073,0.8340000000000032,0.867999999999995,0.8840000000000003,0.902000000000001,0.9339999999999975,0.9500000000000028,0.9689999999999941,1.0010000000000048,1.0190000000000055,1.0499999999999972,1.0700000000000074,1.100999999999999,1.117999999999995,1.1509999999999962,1.1670000000000016,1.1869999999999976,1.2180000000000035,1.2349999999999994,1.266999999999996,1.284000000000006,1.3029999999999973,1.3349999999999937,1.3520000000000039,1.3840000000000003]",0.17125,0.14,1,0,0,1.384,distractor,,,,,,1,20,depression,past,The sinking feeling came on ,-0.25,-0.25,0.25,0.25,R_3mmcSVIVecAwJCE,A,2021-04-06_17h20.16.368,experiment,2020.2.6,MacIntel,60,,,0.00875,-0.00375,1,0,0,fixation,0.00875,-0.00375,1,0,0,text_sentence,0,16,16,19,1
,,,,,,,,,,,,,,1,"[-0.23,-0.23]","[0.23,0.23]","[-0.0025,-0.0025,-0.0025,-0.0025,-0.0025,-0.0025,-0.0025,-0.0025,-0.0025,-0.0025,-0.0025,-0.0025,-0.0025,-0.0025,-0.0025,-0.0025,-0.0025,-0.0025,-0.0025,-0.0025,-0.0025,-0.0025,-0.0025,-0.0025,-0.0025,-0.0025,-0.0025,-0.0025,-0.0075,-0.0075,-0.09375,-0.14,-0.1825,-0.1975,-0.21,-0.2125,-0.21375,-0.21625,-0.2175,-0.22125,-0.2225,-0.2225,-0.22375,-0.22375,-0.225,-0.22625,-0.22625]","[-0.0075,-0.0075,-0.0075,-0.0075,-0.0075,-0.0075,-0.0075,-0.0075,-0.0075,-0.0075,-0.0075,-0.0075,-0.0075,-0.0075,-0.0075,-0.0075,-0.0075,-0.0075,-0.0075,-0.0075,-0.0075,-0.0075,-0.0075,-0.0075,-0.0075,-0.0075,-0.0075,-0.0075,-0.01125,-0.01125,-0.10875,-0.17,-0.2275,-0.24625,-0.25875,-0.26125,-0.26375,-0.265,-0.26625,-0.26625,-0.26625,-0.265,-0.25875,-0.25625,-0.2475,-0.245,-0.2425]","[0,0.017000000000010118,0.03700000000000614,0.06700000000000728,0.08200000000000784,0.1010000000000133,0.11900000000001398,0.15100000000001046,0.1670000000000016,0.18300000000000693,0.20100000000000762,0.21700000000001296,0.2330000000000041,0.2680000000000007,0.2850000000000108,0.3030000000000115,0.3340000000000032,0.35200000000000387,0.3830000000000098,0.40100000000001046,0.4170000000000016,0.45000000000000284,0.46700000000001296,0.5010000000000048,0.5160000000000053,0.5350000000000108,0.568000000000012,0.5860000000000127,0.619000000000014,0.63900000000001,0.6680000000000064,0.6880000000000024,0.717000000000013,0.7350000000000136,0.7680000000000007,0.784000000000006,0.804000000000002,0.8340000000000032,0.8520000000000039,0.8850000000000051,0.9010000000000105,0.9220000000000113,0.9520000000000124,0.9710000000000036,1.0020000000000095,1.0170000000000101,1.0370000000000061]",-0.22625,-0.2425,1,0,0,1.037,target,,,,,,1,28,depression,past,It made me feel low and numb ,-0.25,-0.25,0.25,0.25,R_3mmcSVIVecAwJCE,A,2021-04-06_17h20.16.368,experiment,2020.2.6,MacIntel,60,,,-0.0025,-0.0075,1,0,0,fixation,-0.0025,-0.0075,1,0,0,text_sentence,0,17,17,27,1
,,,,,,,,,,,,,,1,"[0.31,-0.19]","[-0.31,0.19]","[0.005,0.005,0.005,0.005,0.005,0.005,0.005,0.005,0.005,0.005,0.005,0.005,0.005,0.005,0.005,0.005,0.005,0.005,0.005,0.005,0.005,0.005,0.005,0.005,0.005,0.005,0.005,0.005,0.005,0.005,0.005,0.005,0.005,0.005,0.005,0.005,0.005,0.005,0.005,0.005,0.005,0.005,0.005,0.005,0.005,0.005,0.005,0.005,0.005,0.005,0.005,0.005,0.005,0.005,0.005,0.005,0.005,0.005,0.005,0.005,0.005,0.0075,0.0125,0.0275,0.0825,0.1225,0.2025,0.225,0.24375,0.2575,0.26125,0.2625,0.26375,0.265,0.27,0.27125,0.2725,0.27375,0.275,0.275,0.275,0.275,0.275,0.27625,0.27625,0.27625,0.27625,0.27625,0.27625,0.27625,0.27625,0.27375,0.26875,0.2675,0.265,0.2625,0.26125,0.26125,0.26125,0.26625,0.2875,0.295,0.31125,0.315,0.3175,0.31875]","[-0.01375,-0.01375,-0.01375,-0.01375,-0.01375,-0.01375,-0.01375,-0.01375,-0.01375,-0.01375,-0.01375,-0.01375,-0.01375,-0.01375,-0.01375,-0.01375,-0.01375,-0.01375,-0.01375,-0.01375,-0.01375,-0.01375,-0.01375,-0.01375,-0.01375,-0.01375,-0.01375,-0.01375,-0.01375,-0.01375,-0.01375,-0.01375,-0.01375,-0.01375,-0.01375,-0.01375,-0.01375,-0.01375,-0.01375,-0.01375,-0.01375,-0.01375,-0.01375,-0.01375,-0.01375,-0.01375,-0.01375,-0.01375,-0.01375,-0.01375,-0.01375,-0.01375,-0.01375,-0.01375,-0.01375,-0.01375,-0.01375,-0.01375,-0.01375,-0.01375,-0.01375,-0.01375,-0.015,-0.02625,-0.06875,-0.10625,-0.18625,-0.20875,-0.22875,-0.2425,-0.2425,-0.24375,-0.24375,-0.24375,-0.24375,-0.24375,-0.24375,-0.235,-0.22875,-0.19,-0.1775,-0.175,-0.17375,-0.17375,-0.17375,-0.17375,-0.17375,-0.17375,-0.17375,-0.17375,-0.17375,-0.17375,-0.17375,-0.17375,-0.17375,-0.17125,-0.17,-0.17,-0.17,-0.17,-0.17,-0.1725,-0.17875,-0.18,-0.18125,-0.1825]","[0,0.018000000000000682,0.05100000000000193,0.06700000000000728,0.08499999999999375,0.117999999999995,0.13400000000000034,0.15000000000000568,0.16899999999999693,0.20100000000000762,0.21800000000000352,0.2360000000000042,0.2680000000000007,0.2849999999999966,0.31799999999999784,0.3340000000000032,0.35200000000000387,0.3850000000000051,0.40099999999999625,0.41899999999999693,0.4380000000000024,0.4680000000000035,0.48399999999999466,0.5180000000000007,0.5349999999999966,0.5520000000000067,0.5840000000000032,0.6020000000000039,0.617999999999995,0.6389999999999958,0.6680000000000064,0.6839999999999975,0.7019999999999982,0.7349999999999994,0.7510000000000048,0.7680000000000007,0.7870000000000061,0.8179999999999978,0.8349999999999937,0.8529999999999944,0.8840000000000003,0.902000000000001,0.9350000000000023,0.9510000000000076,0.9740000000000038,1.0010000000000048,1.0190000000000055,1.0520000000000067,1.0679999999999978,1.0870000000000033,1.117999999999995,1.1340000000000003,1.1509999999999962,1.1839999999999975,1.2019999999999982,1.2199999999999989,1.2510000000000048,1.266999999999996,1.2849999999999966,1.3029999999999973,1.3340000000000032,1.3520000000000039,1.3700000000000045,1.3930000000000007,1.418999999999997,1.4369999999999976,1.4680000000000035,1.4860000000000042,1.507000000000005,1.5349999999999966,1.5550000000000068,1.5840000000000032,1.6029999999999944,1.6299999999999955,1.6680000000000064,1.686000000000007,1.7049999999999983,1.7349999999999994,1.7519999999999953,1.7849999999999966,1.801000000000002,1.8200000000000074,1.8520000000000039,1.8700000000000045,1.902000000000001,1.9180000000000064,1.9390000000000072,1.968999999999994,1.9909999999999997,2.0180000000000007,2.0360000000000014,2.054000000000002,2.0849999999999937,2.1029999999999944,2.135000000000005,2.156000000000006,2.1850000000000023,2.201999999999998,2.2349999999999994,2.253,2.2849999999999966,2.304000000000002,2.3349999999999937,2.352000000000004,2.3700000000000045,2.402000000000001]",0.27625,-0.17375,1,0,0,1.902,target,,,,,,1,27,depression,future,I would be at the bottom of the barrel ,0.25,-0.25,-0.25,0.25,R_3mmcSVIVecAwJCE,A,2021-04-06_17h20.16.368,experiment,2020.2.6,MacIntel,60,,,0.005,-0.01375,1,0,0,fixation,0.005,-0.01375,1,0,0,text_sentence,0,18,18,26,1
,,,,,,,,,,,,,,0,"[-0.18,-0.18]","[0.18,0.18]","[0.0025,0.0025,0.0025,0.0025,0.0025,0.0025,0.0025,0.0025,0.0025,0.0025,0.0025,0.0025,0.0025,0.0025,0.0025,0.0025,0.0025,0.0025,0.0025,0.0025,0.0025,0.0025,0.0025,0.0025,0.0025,0.0025,0.0025,0.0025,0.0025,0.005,0.0125,0.03625,0.1125,0.16,0.195,0.20625,0.2125,0.2175,0.21875,0.21875,0.22,0.22,0.22,0.21875,0.21875,0.21875,0.21875,0.21875,0.21875,0.21875,0.21875,0.21875,0.21875,0.21875,0.21625,0.2125,0.21,0.20625,0.20375,0.20125,0.1975,0.195,0.195,0.195]","[-0.0075,-0.0075,-0.0075,-0.0075,-0.0075,-0.0075,-0.0075,-0.0075,-0.0075,-0.0075,-0.0075,-0.0075,-0.0075,-0.0075,-0.0075,-0.0075,-0.0075,-0.0075,-0.0075,-0.0075,-0.0075,-0.0075,-0.0075,-0.0075,-0.0075,-0.0075,-0.0075,-0.0075,-0.0075,-0.00125,0.00625,0.0275,0.095,0.1275,0.14875,0.15625,0.16,0.165,0.16625,0.1675,0.17,0.1725,0.1775,0.17875,0.17875,0.17875,0.17875,0.17875,0.17875,0.17875,0.17875,0.17875,0.17875,0.17875,0.17875,0.17875,0.17875,0.17875,0.17875,0.17875,0.17875,0.17875,0.17875,0.17875]","[0,0.016999999999995907,0.03499999999999659,0.06799999999999784,0.08499999999999375,0.10200000000000387,0.12099999999999511,0.14999999999999147,0.16799999999999216,0.18500000000000227,0.20399999999999352,0.23399999999999466,0.25,0.269999999999996,0.30100000000000193,0.31799999999999784,0.33899999999999864,0.367999999999995,0.3859999999999957,0.4029999999999916,0.4339999999999975,0.4519999999999982,0.4689999999999941,0.5010000000000048,0.5189999999999912,0.5360000000000014,0.5679999999999978,0.5849999999999937,0.6020000000000039,0.6350000000000051,0.652000000000001,0.671999999999997,0.7009999999999934,0.7210000000000036,0.7519999999999953,0.7680000000000007,0.7869999999999919,0.8179999999999978,0.8349999999999937,0.8529999999999944,0.8850000000000051,0.9039999999999964,0.9350000000000023,0.9519999999999982,0.9849999999999994,1.0049999999999955,1.0360000000000014,1.0519999999999925,1.0849999999999937,1.1020000000000039,1.1209999999999951,1.1509999999999962,1.1670000000000016,1.1850000000000023,1.2180000000000035,1.2349999999999994,1.2549999999999955,1.2849999999999966,1.304000000000002,1.3349999999999937,1.355000000000004,1.3850000000000051,1.4039999999999964,1.4350000000000023]",0.21875,0.17875,1,0,0,0.985,distractor,,,,,,1,26,depression,past,I felt downtrodden ,-0.25,-0.25,0.25,0.25,R_3mmcSVIVecAwJCE,A,2021-04-06_17h20.16.368,experiment,2020.2.6,MacIntel,60,,,0.0025,-0.0075,1,0,0,fixation,0.0025,-0.0075,1,0,0,text_sentence,0,19,19,25,1
,,,,,,,,,,,,,,1,"[0.27,0.27]","[-0.27,-0.27]","[0.0125,0.0125,0.0125,0.0125,0.0125,0.0125,0.0125,0.0125,0.0125,0.0125,0.0125,0.0125,0.0125,0.0125,0.0125,0.0125,0.0125,0.0125,0.0125,0.0125,0.0125,0.0125,0.0125,0.0125,0.0125,0.0125,0.0125,0.0125,0.0125,0.0125,0.02625,0.045,0.11375,0.1625,0.21375,0.22375,0.2325,0.2375,0.23875,0.24,0.24125,0.2425,0.2425,0.2425,0.2425,0.2425,0.245,0.24875,0.25,0.2525,0.2525,0.2525,0.2525]","[0.01375,0.01375,0.01375,0.01375,0.01375,0.01375,0.01375,0.01375,0.01375,0.01375,0.01375,0.01375,0.01375,0.01375,0.01375,0.01375,0.01375,0.01375,0.01375,0.01375,0.01375,0.01375,0.01375,0.01375,0.01375,0.01375,0.01375,0.01375,0.01375,0.0175,0.035,0.0525,0.1025,0.1325,0.17,0.18,0.18625,0.19375,0.195,0.1975,0.2,0.2025,0.20375,0.20625,0.21125,0.21875,0.23375,0.24125,0.24625,0.25375,0.25625,0.2575,0.25875]","[0,0.016999999999995907,0.03599999999998715,0.06599999999998829,0.08299999999999841,0.10199999999998965,0.13299999999999557,0.14999999999999147,0.16599999999999682,0.19999999999998863,0.21699999999999875,0.23599999999999,0.2669999999999959,0.2839999999999918,0.3159999999999883,0.3329999999999984,0.35199999999998965,0.38299999999999557,0.3999999999999915,0.41799999999999216,0.44999999999998863,0.46699999999999875,0.48499999999999943,0.5169999999999959,0.5339999999999918,0.5499999999999972,0.5689999999999884,0.5999999999999943,0.6169999999999902,0.6349999999999909,0.6669999999999874,0.6869999999999976,0.7169999999999987,0.7349999999999994,0.7659999999999911,0.782999999999987,0.8029999999999973,0.8329999999999984,0.8519999999999897,0.8849999999999909,0.9029999999999916,0.9329999999999927,0.9499999999999886,0.9689999999999941,1,1.0180000000000007,1.0499999999999972,1.0679999999999978,1.0899999999999892,1.1169999999999902,1.1359999999999957,1.1669999999999874,1.1829999999999927]",0.2525,0.25875,1,0,0,1.183,target,,,,,,1,9,anxiety,future,My nerves would rise ,0.25,0.25,-0.25,-0.25,R_3mmcSVIVecAwJCE,A,2021-04-06_17h20.16.368,experiment,2020.2.6,MacIntel,60,,,0.0125,0.01375,1,0,0,fixation,0.0125,0.01375,1,0,0,text_sentence,0,20,20,8,1
,,,,,,,,,,,,,,1,"[-0.16,0.33999999999999997]","[0.16,-0.33999999999999997]","[0.01375,0.01375,0.01375,0.01375,0.01375,0.01375,0.01375,0.01375,0.01375,0.01375,0.01375,0.01375,0.01375,0.01375,0.01375,0.01375,0.01375,0.01375,0.01375,0.01375,0.01375,0.01375,0.01375,0.01375,0.01375,0.01375,0.01125,-0.00875,-0.02,-0.1,-0.13375,-0.17,-0.2025,-0.2075,-0.215,-0.215,-0.2125,-0.20375,-0.2,-0.1975,-0.1925,-0.18875,-0.17875,-0.17375,-0.16875,-0.16375,-0.16375,-0.1625]","[0.00375,0.00375,0.00375,0.00375,0.00375,0.00375,0.00375,0.00375,0.00375,0.00375,0.00375,0.00375,0.00375,0.00375,0.00375,0.00375,0.00375,0.00375,0.00375,0.00375,0.00375,0.00375,0.00375,0.00375,0.00375,0.00375,0.00375,0.025,0.0375,0.1225,0.16125,0.2075,0.2575,0.2675,0.3075,0.32,0.3275,0.34,0.34375,0.345,0.345,0.345,0.3425,0.33875,0.33375,0.3275,0.32625,0.32625]","[0.0010000000000047748,0.018000000000000682,0.051000000000016144,0.06700000000000728,0.10000000000002274,0.11700000000001864,0.13700000000000045,0.1670000000000016,0.18400000000002592,0.20000000000001705,0.2330000000000041,0.25,0.2680000000000007,0.30000000000001137,0.3170000000000073,0.33600000000001273,0.36700000000001864,0.38400000000001455,0.40200000000001523,0.4340000000000117,0.45199999999998397,0.4829999999999899,0.5009999999999906,0.5170000000000101,0.5499999999999972,0.5669999999999931,0.5889999999999844,0.6170000000000044,0.6350000000000051,0.6679999999999922,0.6840000000000117,0.7039999999999935,0.7329999999999899,0.7509999999999906,0.784000000000006,0.8010000000000019,0.8209999999999837,0.8519999999999897,0.8699999999999903,0.8999999999999915,0.9169999999999874,0.9359999999999928,0.9680000000000035,0.9829999999999899,1.0019999999999953,1.0350000000000108,1.051000000000002,1.0709999999999837]",-0.1625,0.32625,1,0,0,1.07,target,,,,,,1,14,anxiety,past,I was struck down by fear ,-0.25,0.25,0.25,-0.25,R_3mmcSVIVecAwJCE,A,2021-04-06_17h20.16.368,experiment,2020.2.6,MacIntel,60,,,0.01375,0.00375,1,0,0,fixation,0.01375,0.00375,1,0,0,text_sentence,0,21,21,13,1
,,,,,,,,,,,,,,1,"[-0.16999999999999998,-0.16999999999999998]","[0.16999999999999998,0.16999999999999998]","[0.0025,0.0025,0.0025,0.0025,0.0025,0.0025,0.0025,0.0025,0.0025,0.0025,0.0025,0.0025,0.0025,0.0025,0.0025,0.0025,0.0025,0.0025,0.0025,0.0025,0.0025,0.0025,0.0025,0.0025,0.0025,0.0025,0.0025,0.0025,0.0025,0.0025,0.0025,0.0025,0.0025,0.0025,0.0025,0.0025,0.0025,0.0025,0.0025,0.0025,0.0025,0.0025,0.0025,0.0025,0.0025,0.0025,0.0025,0.005,0.005,0.005,-0.04,-0.1,-0.145,-0.155,-0.17,-0.17375,-0.17625,-0.17625,-0.1775,-0.1775,-0.1775,-0.1775,-0.1775,-0.1775]","[0,0,0,0,0,0,0,0,0,0,0,0,0,0,0,0,0,0,0,0,0,0,0,0,0,0,0,0,0,0,0,0,0,0,0,0,0,0,0,0,0,0,0,0,0,0,0,0.00125,0.00125,0.00125,-0.02875,-0.07625,-0.1175,-0.1275,-0.145,-0.15,-0.1525,-0.15625,-0.1575,-0.15875,-0.16125,-0.1625,-0.1625,-0.16375]","[0,0.016999999999995907,0.05000000000001137,0.06700000000000728,0.09999999999999432,0.11600000000001387,0.1349999999999909,0.1519999999999868,0.18299999999999272,0.19999999999998863,0.21700000000001296,0.23500000000001364,0.26599999999999113,0.28299999999998704,0.3009999999999877,0.3329999999999984,0.3499999999999943,0.367999999999995,0.4000000000000057,0.41800000000000637,0.4509999999999934,0.4660000000000082,0.48500000000001364,0.5029999999999859,0.532999999999987,0.5500000000000114,0.5670000000000073,0.5989999999999895,0.6160000000000139,0.6349999999999909,0.6659999999999968,0.6839999999999975,0.6999999999999886,0.7330000000000041,0.75,0.7680000000000007,0.8000000000000114,0.8160000000000025,0.8340000000000032,0.8509999999999991,0.8839999999999861,0.8990000000000009,0.9170000000000016,0.9509999999999934,0.9679999999999893,1,1.0180000000000007,1.039999999999992,1.0670000000000073,1.0860000000000127,1.117999999999995,1.1370000000000005,1.1670000000000016,1.1839999999999975,1.2179999999999893,1.2340000000000089,1.252999999999986,1.2839999999999918,1.3009999999999877,1.3189999999999884,1.3499999999999943,1.3660000000000139,1.3859999999999957,1.4180000000000064]",-0.1775,-0.16375,1,0,0,1.418,target,,,,,,1,33,neutral,present,That ship has sailed ,-0.25,-0.25,0.25,0.25,R_3mmcSVIVecAwJCE,A,2021-04-06_17h20.16.368,experiment,2020.2.6,MacIntel,60,,,0.0025,0,1,0,0,fixation,0.0025,0,1,0,0,text_sentence,0,22,22,32,1
,,,,,,,,,,,,,,1,"[-0.23,0.27]","[0.23,-0.27]","[-0.01625,-0.01625,-0.01625,-0.01625,-0.01625,-0.01625,-0.01625,-0.01625,-0.01625,-0.01625,-0.01625,-0.01625,-0.01625,-0.01625,-0.01625,-0.01625,-0.01625,-0.01625,-0.01625,-0.01625,-0.01625,-0.01625,-0.01625,-0.01625,-0.01625,-0.01625,-0.01625,-0.01625,-0.01625,-0.01625,-0.01625,-0.01625,-0.01625,-0.01625,-0.01625,-0.01625,-0.01625,-0.01625,-0.01625,-0.01625,-0.01625,-0.01625,-0.01625,-0.01625,-0.01625,-0.01625,-0.01625,-0.01625,-0.01625,-0.01625,-0.01625,-0.01625,-0.01625,-0.01625,-0.01625,-0.01625,-0.01625,-0.01625,-0.01625,-0.01625,-0.01625,-0.01625,-0.01625,-0.01625,-0.01625,-0.01875,-0.02375,-0.0475,-0.07125,-0.10875,-0.1275,-0.1475,-0.1675,-0.1725,-0.17875,-0.1875,-0.1925,-0.19625,-0.20375,-0.21,-0.21375,-0.215]","[-0.01125,-0.01125,-0.01125,-0.01125,-0.01125,-0.01125,-0.01125,-0.01125,-0.01125,-0.01125,-0.01125,-0.01125,-0.01125,-0.01125,-0.01125,-0.01125,-0.01125,-0.01125,-0.01125,-0.01125,-0.01125,-0.01125,-0.01125,-0.01125,-0.01125,-0.01125,-0.01125,-0.01125,-0.01125,-0.01125,-0.01125,-0.01125,-0.01125,-0.01125,-0.01125,-0.01125,-0.01125,-0.01125,-0.01125,-0.01125,-0.01125,-0.01125,-0.01125,-0.01125,-0.01125,-0.01125,-0.01125,-0.01125,-0.01125,-0.01125,-0.01125,-0.01125,-0.01125,-0.01125,-0.01125,-0.01125,-0.01125,-0.01125,-0.01125,-0.01125,-0.01125,-0.01125,-0.01125,-0.01125,-0.01125,-0.0075,0.00125,0.03625,0.06625,0.115,0.1375,0.1675,0.19875,0.20625,0.21375,0.225,0.22875,0.23375,0.2425,0.24875,0.2525,0.2525]","[0,0.030000000000001137,0.049000000000006594,0.0800000000000125,0.09700000000000841,0.12999999999999545,0.14500000000001023,0.16399999999998727,0.19700000000000273,0.21299999999999386,0.23199999999999932,0.25,0.28000000000000114,0.29699999999999704,0.3149999999999977,0.3470000000000084,0.36299999999999955,0.382000000000005,0.4130000000000109,0.4310000000000116,0.4490000000000123,0.47999999999998977,0.4969999999999857,0.5149999999999864,0.546999999999997,0.5629999999999882,0.5809999999999889,0.6129999999999995,0.6310000000000002,0.6490000000000009,0.6800000000000068,0.6970000000000027,0.7129999999999939,0.7319999999999993,0.76400000000001,0.7800000000000011,0.7980000000000018,0.8160000000000025,0.8479999999999848,0.8629999999999995,0.882000000000005,0.9139999999999873,0.9300000000000068,0.9490000000000123,0.9799999999999898,0.9989999999999952,1.0300000000000011,1.046999999999997,1.0649999999999977,1.0970000000000084,1.1140000000000043,1.132000000000005,1.164999999999992,1.1800000000000068,1.2139999999999986,1.2299999999999898,1.2630000000000052,1.2820000000000107,1.2990000000000066,1.3300000000000125,1.3479999999999848,1.3629999999999995,1.3969999999999914,1.414999999999992,1.4329999999999927,1.4639999999999986,1.4819999999999993,1.51400000000001,1.531000000000006,1.563999999999993,1.5809999999999889,1.5999999999999943,1.6310000000000002,1.6469999999999914,1.6670000000000016,1.6980000000000075,1.7139999999999986,1.7340000000000089,1.76400000000001,1.7839999999999918,1.813999999999993,1.8309999999999889]",-0.215,0.2525,1,0,0,1.831,target,,,,,,1,39,neutral,present,The cat is out of the bag ,-0.25,0.25,0.25,-0.25,R_3mmcSVIVecAwJCE,A,2021-04-06_17h20.16.368,experiment,2020.2.6,MacIntel,60,,,-0.01625,-0.01125,1,0,0,fixation,-0.01625,-0.01125,1,0,0,text_sentence,0,23,23,38,1
,,,,,,,,,,,,,,0,"[0.3,-0.2]","[-0.3,0.2]","[0.01375,0.01375,0.01375,0.01375,0.01375,0.01375,0.01375,0.01375,0.01375,0.01375,0.01375,0.01375,0.01375,0.01375,0.01375,0.01375,0.01375,0.01375,0.01375,0.01375,0.01375,0.01375,0.01375,0.01375,0.01375,0.01375,0.01375,0.01375,0.01375,0.01375,0.01375,-0.00375,-0.03,-0.0975,-0.12625,-0.15625,-0.19125,-0.205,-0.215,-0.21875,-0.22125,-0.23,-0.235,-0.245,-0.25,-0.2575,-0.2625,-0.2675,-0.26875,-0.2725,-0.2725,-0.27375,-0.275]","[-0.0075,-0.0075,-0.0075,-0.0075,-0.0075,-0.0075,-0.0075,-0.0075,-0.0075,-0.0075,-0.0075,-0.0075,-0.0075,-0.0075,-0.0075,-0.0075,-0.0075,-0.0075,-0.0075,-0.0075,-0.0075,-0.0075,-0.0075,-0.0075,-0.0075,-0.0075,-0.0075,-0.0075,-0.0075,-0.0075,-0.0075,0.005,0.02375,0.06875,0.0875,0.10875,0.1325,0.1425,0.14875,0.14875,0.15,0.15125,0.1525,0.1575,0.16125,0.16625,0.17125,0.17625,0.17875,0.185,0.1875,0.19,0.1925]","[0,0.019000000000005457,0.051000000000016144,0.06800000000001205,0.09900000000001796,0.11700000000001864,0.13500000000001933,0.1670000000000016,0.1839999999999975,0.20199999999999818,0.2330000000000041,0.2510000000000048,0.26900000000000546,0.30100000000001614,0.3170000000000073,0.3340000000000032,0.35300000000000864,0.38400000000001455,0.40100000000001046,0.41800000000000637,0.4490000000000123,0.46800000000001774,0.48500000000001364,0.5169999999999959,0.5330000000000155,0.5490000000000066,0.5670000000000073,0.585000000000008,0.6170000000000186,0.6340000000000146,0.65300000000002,0.6839999999999975,0.7019999999999982,0.7340000000000089,0.7510000000000048,0.7700000000000102,0.8000000000000114,0.8200000000000216,0.8499999999999943,0.8670000000000186,0.8859999999999957,0.9170000000000016,0.936000000000007,0.9680000000000177,0.9830000000000041,1.004000000000019,1.0330000000000155,1.0510000000000161,1.0690000000000168,1.100999999999999,1.117999999999995,1.1370000000000005,1.1670000000000016]",-0.275,0.1925,1,0,0,1.167,distractor,,,,,,1,43,neutral,present,She rules the roost ,0.25,-0.25,-0.25,0.25,R_3mmcSVIVecAwJCE,A,2021-04-06_17h20.16.368,experiment,2020.2.6,MacIntel,60,,,0.01375,-0.0075,1,0,0,fixation,0.01375,-0.0075,1,0,0,text_sentence,0,24,24,42,1
,,,,,,,,,,,,,,0,"[0.35,0.35]","[-0.35,-0.35]","[-0.01625,-0.01625,-0.01625,-0.01625,-0.01625,-0.01625,-0.01625,-0.01625,-0.01625,-0.01625,-0.01625,-0.01625,-0.01625,-0.01625,-0.01625,-0.01625,-0.01625,-0.01625,-0.01625,-0.01625,-0.01625,-0.01625,-0.015,-0.01375,-0.01375,-0.01375,-0.01375,-0.01375,-0.01375,-0.01375,-0.01375,-0.01375,-0.01125,-0.00875,-0.0075,-0.00125,0.00125,0.00375,0.0075,0.00875,0.01,0.01,-0.01125,-0.03875,-0.1425,-0.1875,-0.21875,-0.27875,-0.3,-0.32625,-0.3325,-0.345,-0.34875,-0.3525,-0.35375,-0.355,-0.355,-0.355,-0.355]","[0.00625,0.00625,0.00625,0.00625,0.00625,0.00625,0.00625,0.00625,0.00625,0.00625,0.00625,0.00625,0.00625,0.00625,0.00625,0.00625,0.00625,0.00625,0.00625,0.00625,0.00625,0.00625,0.0075,0.0075,0.0075,0.0075,0.0075,0.00625,0.00625,0.00625,0.00625,0.00625,0.00625,0.00625,0.00625,0.00625,0.005,0.005,0.005,0.00625,0.00625,0.00625,-0.02875,-0.06375,-0.17375,-0.21625,-0.245,-0.29375,-0.31125,-0.3375,-0.34375,-0.35375,-0.355,-0.355,-0.355,-0.35375,-0.35375,-0.35375,-0.35375]","[0,0.018000000000000682,0.049000000000006594,0.06900000000001683,0.09900000000001796,0.11600000000001387,0.13500000000001933,0.16600000000002524,0.18400000000002592,0.20000000000001705,0.2330000000000041,0.25,0.26600000000001955,0.285000000000025,0.2990000000000066,0.3170000000000073,0.3340000000000032,0.35000000000002274,0.36700000000001864,0.3990000000000009,0.41500000000002046,0.4350000000000023,0.46700000000001296,0.48400000000000887,0.5170000000000243,0.5320000000000107,0.5520000000000209,0.5840000000000032,0.6000000000000227,0.6330000000000098,0.6500000000000057,0.6680000000000064,0.7010000000000218,0.717000000000013,0.7350000000000136,0.7660000000000196,0.785000000000025,0.8170000000000073,0.8329999999999984,0.8520000000000039,0.8840000000000146,0.9020000000000152,0.9320000000000164,0.950000000000017,0.9840000000000089,1.0010000000000048,1.0200000000000102,1.0510000000000161,1.0700000000000216,1.1000000000000227,1.1189999999999998,1.1510000000000105,1.1660000000000252,1.1850000000000023,1.217000000000013,1.2360000000000184,1.2680000000000007,1.2840000000000202,1.3160000000000025]",-0.355,-0.35375,1,0,0,1.316,distractor,,,,,,1,1,anxiety,future,The thought will make my nerves skyrocket ,0.25,0.25,-0.25,-0.25,R_3mmcSVIVecAwJCE,A,2021-04-06_17h20.16.368,experiment,2020.2.6,MacIntel,60,,,-0.01625,0.00625,1,0,0,fixation,-0.01625,0.00625,1,0,0,text_sentence,0,25,25,0,1
,,,,,,,,,,,,,,1,"[-0.16,0.33999999999999997]","[0.16,-0.33999999999999997]","[-0.02,-0.02,-0.02,-0.02,-0.02,-0.02,-0.02,-0.02,-0.02,-0.02,-0.02,-0.02,-0.02,-0.02,-0.02,-0.02,-0.02,-0.02,-0.02,-0.02,-0.02,-0.02,-0.02,-0.02,-0.02,-0.02,-0.02,-0.02,-0.02,-0.02,-0.02,-0.02,-0.02,-0.02,-0.02,-0.02,-0.02,-0.02,-0.02,-0.02,-0.02,-0.02,-0.02,-0.02,-0.02,-0.02,-0.02,-0.02,-0.02,-0.02,-0.02,-0.02,-0.02,-0.02,-0.02,-0.02,-0.02,-0.02,-0.02,-0.02,-0.02,-0.02,-0.02,-0.02,-0.02,-0.02,-0.02875,-0.04625,-0.05625,-0.085,-0.09375,-0.1,-0.105,-0.10625,-0.1125,-0.12,-0.12625,-0.1325,-0.13375,-0.135,-0.13875,-0.14125,-0.14375,-0.14375,-0.14375,-0.14375,-0.14375,-0.14375,-0.14375,-0.14375]","[-0.01125,-0.01125,-0.01125,-0.01125,-0.01125,-0.01125,-0.01125,-0.01125,-0.01125,-0.01125,-0.01125,-0.01125,-0.01125,-0.01125,-0.01125,-0.01125,-0.01125,-0.01125,-0.01125,-0.01125,-0.01125,-0.01125,-0.01125,-0.01125,-0.01125,-0.01125,-0.01125,-0.01125,-0.01125,-0.01125,-0.01125,-0.01125,-0.01125,-0.01125,-0.01125,-0.01125,-0.01125,-0.01125,-0.01125,-0.01125,-0.01125,-0.01125,-0.01125,-0.01125,-0.01125,-0.01125,-0.01125,-0.01125,-0.01125,-0.01125,-0.01125,-0.01125,-0.01125,-0.01125,-0.01125,-0.01125,-0.01125,-0.01125,-0.01125,-0.01125,-0.01125,-0.01125,-0.01125,-0.01125,-0.01125,-0.01125,0.01375,0.05875,0.08375,0.165,0.1925,0.23125,0.335,0.3575,0.38,0.3925,0.4025,0.4075,0.40875,0.40875,0.40375,0.39625,0.38125,0.3725,0.3625,0.355,0.3525,0.35,0.34875,0.3475]","[0,0.016999999999995907,0.03499999999999659,0.06499999999999773,0.08399999999997476,0.10099999999999909,0.13299999999998136,0.14999999999997726,0.16799999999997794,0.19999999999998863,0.21699999999998454,0.23499999999998522,0.2669999999999959,0.28199999999998226,0.3009999999999877,0.33399999999997476,0.3499999999999943,0.367999999999995,0.39999999999997726,0.4159999999999968,0.43499999999997385,0.46699999999998454,0.48299999999997567,0.5,0.5339999999999918,0.549999999999983,0.5669999999999789,0.5999999999999943,0.6169999999999902,0.6349999999999909,0.6669999999999732,0.6829999999999927,0.7029999999999745,0.7339999999999804,0.75,0.7680000000000007,0.799999999999983,0.8159999999999741,0.8349999999999795,0.8669999999999902,0.8829999999999814,0.9019999999999868,0.9339999999999975,0.9499999999999886,0.9679999999999893,1,1.016999999999996,1.0509999999999877,1.065999999999974,1.0829999999999984,1.1169999999999902,1.1329999999999814,1.150999999999982,1.1829999999999927,1.1999999999999886,1.218999999999994,1.25,1.266999999999996,1.282999999999987,1.3019999999999925,1.3339999999999748,1.3489999999999895,1.3669999999999902,1.3889999999999816,1.4329999999999927,1.4509999999999934,1.4699999999999989,1.5,1.5209999999999866,1.549999999999983,1.5679999999999836,1.586999999999989,1.6339999999999861,1.650999999999982,1.6709999999999923,1.6999999999999886,1.718999999999994,1.75,1.766999999999996,1.7879999999999825,1.8169999999999789,1.8359999999999843,1.8669999999999902,1.8839999999999861,1.9029999999999916,1.9339999999999975,1.9499999999999886,1.968999999999994,2,2.016999999999996]",-0.14375,0.3475,1,0,0,2.017,target,,,,,,1,37,neutral,present,Out of the frying pan and into the fire ,-0.25,0.25,0.25,-0.25,R_3mmcSVIVecAwJCE,A,2021-04-06_17h20.16.368,experiment,2020.2.6,MacIntel,60,,,-0.02,-0.01125,1,0,0,fixation,-0.02,-0.01125,1,0,0,text_sentence,0,26,26,36,1
,,,,,,,,,,,,,,0,"[-0.23,0.27]","[0.23,-0.27]","[0.0025,0.0025,0.0025,0.0025,0.0025,0.0025,0.0025,0.0025,0.0025,0.0025,0.0025,0.0025,0.0025,0.0025,0.0025,0.0025,0.0025,0.0025,0.0025,0.0025,0.0025,0.0025,0.0025,0.0025,0.0025,0.0025,0.0025,0.0025,0.0025,0.0025,0.0025,0.0025,0.0025,0.0025,0.0025,0.0025,0.0025,0.0025,0.0025,0.0025,0.0025,0.0025,0.0025,0.02,0.055,0.18125,0.2475,0.3125,0.325,0.33625,0.3375,0.3375,0.3375,0.3375,0.3325,0.3225,0.27625,0.2525,0.23375,0.21125,0.2075,0.20625,0.20625,0.20625,0.20625,0.20625,0.20625,0.20625,0.20625,0.20625,0.20625,0.20625,0.20625,0.20625,0.20625,0.20625,0.20625,0.20625,0.20625,0.20625,0.20625]","[0.00625,0.00625,0.00625,0.00625,0.00625,0.00625,0.00625,0.00625,0.00625,0.00625,0.00625,0.00625,0.00625,0.00625,0.00625,0.00625,0.00625,0.00625,0.00625,0.00625,0.00625,0.00625,0.00625,0.00625,0.00625,0.00625,0.00625,0.00625,0.00625,0.00625,0.00625,0.00625,0.00625,0.00625,0.00625,0.00625,0.00625,0.00625,0.00625,0.00625,0.00625,0.00625,0.00375,-0.0175,-0.05625,-0.1675,-0.22625,-0.29125,-0.3025,-0.3175,-0.31875,-0.32,-0.32,-0.32,-0.31625,-0.31,-0.2775,-0.26375,-0.25125,-0.235,-0.23125,-0.23,-0.23,-0.23,-0.23,-0.23,-0.23,-0.23,-0.23,-0.23,-0.23,-0.23,-0.23,-0.23,-0.235,-0.24125,-0.255,-0.2575,-0.26,-0.26,-0.26]","[0,0.018000000000000682,0.036000000000001364,0.06700000000000728,0.08400000000000318,0.11600000000001387,0.13400000000001455,0.15200000000001523,0.18300000000002115,0.20000000000001705,0.21800000000001774,0.25,0.26600000000001955,0.2849999999999966,0.3170000000000073,0.3329999999999984,0.3509999999999991,0.3689999999999998,0.40100000000001046,0.4170000000000016,0.4339999999999975,0.45300000000000296,0.48400000000000887,0.5,0.5190000000000055,0.5510000000000161,0.5670000000000073,0.5860000000000127,0.6170000000000186,0.6340000000000146,0.65300000000002,0.6839999999999975,0.700000000000017,0.717000000000013,0.7350000000000136,0.7669999999999959,0.7840000000000202,0.8010000000000161,0.8329999999999984,0.8509999999999991,0.8670000000000186,0.8850000000000193,0.9180000000000064,0.9330000000000211,0.953000000000003,0.9850000000000136,1.0049999999999955,1.0340000000000202,1.0510000000000161,1.0840000000000032,1.100999999999999,1.122000000000014,1.1510000000000105,1.1690000000000111,1.2010000000000218,1.217000000000013,1.2510000000000048,1.266999999999996,1.2870000000000061,1.318000000000012,1.3360000000000127,1.3670000000000186,1.3850000000000193,1.4050000000000011,1.4339999999999975,1.4510000000000218,1.4699999999999989,1.5160000000000196,1.5330000000000155,1.552000000000021,1.5840000000000032,1.600999999999999,1.6170000000000186,1.6510000000000105,1.6680000000000064,1.6870000000000118,1.7180000000000177,1.7360000000000184,1.7680000000000007,1.7849999999999966,1.8170000000000073]",0.20625,-0.23,1,0,0,1.405,distractor,,,,,,1,38,neutral,present,We can build our relationship ,-0.25,0.25,0.25,-0.25,R_3mmcSVIVecAwJCE,A,2021-04-06_17h20.16.368,experiment,2020.2.6,MacIntel,60,,,0.0025,0.00625,1,0,0,fixation,0.0025,0.00625,1,0,0,text_sentence,0,27,27,37,1
,,,,,,,,,,,,,,1,"[-0.18,-0.18]","[0.18,0.18]","[0.0175,0.0175,0.0175,0.0175,0.0175,0.0175,0.0175,0.0175,0.0175,0.0175,0.0175,0.0175,0.0175,0.0175,0.0175,0.0175,0.0175,0.0175,0.0175,0.0175,0.0175,0.0175,0.0175,0.0175,0.0175,0.0175,0.01625,-0.0125,-0.03875,-0.10625,-0.1275,-0.15,-0.1725,-0.17625,-0.18625,-0.1875,-0.19,-0.19,-0.19125,-0.19125,-0.19125,-0.19125,-0.19125,-0.19125,-0.19125,-0.19125,-0.19125,-0.19125,-0.19125,-0.19125,-0.19125,-0.19125,-0.19125,-0.19125,-0.19,-0.18875,-0.1875,-0.18625,-0.18625,-0.18625]","[-0.00125,-0.00125,-0.00125,-0.00125,-0.00125,-0.00125,-0.00125,-0.00125,-0.00125,-0.00125,-0.00125,-0.00125,-0.00125,-0.00125,-0.00125,-0.00125,-0.00125,-0.00125,-0.00125,-0.00125,-0.00125,-0.00125,-0.00125,-0.00125,-0.00125,-0.00125,-0.00125,-0.0275,-0.05375,-0.125,-0.14875,-0.17625,-0.2025,-0.2075,-0.2175,-0.21875,-0.22,-0.22,-0.22125,-0.22125,-0.22125,-0.22125,-0.22125,-0.22125,-0.22125,-0.22125,-0.215,-0.21375,-0.2125,-0.2125,-0.2125,-0.2125,-0.2125,-0.20875,-0.2025,-0.1975,-0.19375,-0.1925,-0.1925,-0.1925]","[0,0.018000000000000682,0.03299999999998704,0.0519999999999925,0.08299999999999841,0.09999999999999432,0.11899999999999977,0.13700000000000045,0.16599999999999682,0.1839999999999975,0.20300000000000296,0.2330000000000041,0.25200000000000955,0.26900000000000546,0.28700000000000614,0.3170000000000073,0.33500000000000796,0.35300000000000864,0.3849999999999909,0.4019999999999868,0.4339999999999975,0.4519999999999982,0.4849999999999852,0.5010000000000048,0.5209999999999866,0.5509999999999877,0.5689999999999884,0.6009999999999991,0.6189999999999998,0.6519999999999868,0.6670000000000016,0.6879999999999882,0.7179999999999893,0.7369999999999948,0.7680000000000007,0.7870000000000061,0.8170000000000073,0.8359999999999843,0.8689999999999998,0.8870000000000005,0.9180000000000064,0.9339999999999975,0.9509999999999934,0.9849999999999852,1.0020000000000095,1.0219999999999914,1.0519999999999925,1.070999999999998,1.100999999999999,1.117999999999995,1.1359999999999957,1.1680000000000064,1.1850000000000023,1.2169999999999845,1.2340000000000089,1.252999999999986,1.2839999999999918,1.3009999999999877,1.3199999999999932,1.3520000000000039]",-0.19125,-0.22125,1,0,0,0.918,target,,,,,,1,36,neutral,present,I defended my choices ,-0.25,-0.25,0.25,0.25,R_3mmcSVIVecAwJCE,A,2021-04-06_17h20.16.368,experiment,2020.2.6,MacIntel,60,,,0.0175,-0.00125,1,0,0,fixation,0.0175,-0.00125,1,0,0,text_sentence,0,28,28,35,1
,,,,,,,,,,,,,,1,"[0.26,-0.24]","[-0.26,0.24]","[-0.00125,-0.00125,-0.00125,-0.00125,-0.00125,-0.00125,-0.00125,-0.00125,-0.00125,-0.00125,-0.00125,-0.00125,-0.00125,-0.00125,-0.00125,-0.00125,-0.00125,-0.00125,-0.00125,-0.00125,-0.00125,-0.00125,-0.00125,-0.00125,-0.00125,-0.00125,-0.00125,-0.00125,-0.00125,-0.00125,-0.00125,-0.00125,-0.00125,-0.00125,-0.00125,-0.00125,-0.00125,-0.00125,-0.00125,-0.00125,-0.00125,-0.00125,-0.00125,-0.00125,-0.00125,0,0.00125,0.00125,0.0025,0.0025,0.0025,0.0025,0.0025,0.00125,0.00125,0.00125,0.00125,0.00125,0.00125,0.0075,0.0175,0.0775,0.1225,0.23,0.25625,0.2825,0.30125,0.30625,0.3075,0.3075,0.3075,0.3075,0.30875,0.30875,0.30875,0.29875,0.28625,0.26,0.255,0.2475,0.24625,0.24625,0.24625,0.24625]","[0.00375,0.00375,0.00375,0.00375,0.00375,0.00375,0.00375,0.00375,0.00375,0.00375,0.00375,0.00375,0.00375,0.00375,0.00375,0.00375,0.00375,0.00375,0.00375,0.00375,0.00375,0.00375,0.00375,0.00375,0.00375,0.00375,0.00375,0.00375,0.00375,0.00375,0.00375,0.00375,0.00375,0.00375,0.00375,0.00375,0.00375,0.00375,0.00375,0.00375,0.00375,0.00375,0.00375,0.00375,0.00375,0.00375,0.00375,0.00375,0.005,0.005,0.00375,0.0025,0,-0.00125,-0.0025,-0.0025,-0.0025,-0.0025,-0.0025,-0.00625,-0.01375,-0.0625,-0.1025,-0.21875,-0.2525,-0.28875,-0.3175,-0.3275,-0.33,-0.33125,-0.33125,-0.33125,-0.33125,-0.33125,-0.33,-0.31625,-0.29875,-0.2625,-0.2525,-0.23375,-0.23,-0.2275,-0.2275,-0.2275]","[0.0010000000000047748,0.018000000000000682,0.04999999999998295,0.06700000000000728,0.08500000000000796,0.103999999999985,0.13399999999998613,0.15099999999998204,0.18299999999999272,0.2009999999999934,0.2189999999999941,0.2510000000000048,0.2669999999999959,0.3009999999999877,0.3170000000000073,0.3359999999999843,0.367999999999995,0.3830000000000098,0.41800000000000637,0.4339999999999975,0.4509999999999934,0.48400000000000887,0.5,0.5169999999999959,0.5360000000000014,0.5660000000000025,0.5840000000000032,0.6030000000000086,0.6339999999999861,0.650999999999982,0.6689999999999827,0.7009999999999934,0.7169999999999845,0.73599999999999,0.7669999999999959,0.782999999999987,0.8029999999999973,0.8340000000000032,0.8509999999999991,0.8689999999999998,0.900999999999982,0.9240000000000066,0.9509999999999934,0.9679999999999893,0.98599999999999,1.0190000000000055,1.0339999999999918,1.0550000000000068,1.085000000000008,1.103999999999985,1.1330000000000098,1.150999999999982,1.1699999999999875,1.2009999999999934,1.2179999999999893,1.2379999999999995,1.2680000000000007,1.2860000000000014,1.3059999999999832,1.335000000000008,1.3530000000000086,1.3859999999999957,1.4069999999999823,1.4339999999999975,1.4519999999999982,1.4720000000000084,1.5010000000000048,1.5190000000000055,1.5509999999999877,1.5689999999999884,1.6020000000000039,1.6169999999999902,1.6359999999999957,1.6529999999999916,1.6839999999999975,1.7009999999999934,1.718999999999994,1.7510000000000048,1.7700000000000102,1.8019999999999925,1.820999999999998,1.850999999999999,1.867999999999995,1.8859999999999957]",0.24625,-0.2275,1,0,0,1.885,target,,,,,,1,17,depression,future,I will reach rock bottom ,0.25,-0.25,-0.25,0.25,R_3mmcSVIVecAwJCE,A,2021-04-06_17h20.16.368,experiment,2020.2.6,MacIntel,60,,,-0.0025,-0.01875,1,0,0,fixation,-0.00125,0.00375,1,0,0,text_sentence,0,29,29,16,1
,,,,,,,,,,,,,,1,"[0.35,0.35]","[-0.35,-0.35]","[-0.0075,-0.0075,-0.0075,-0.0075,-0.0075,-0.0075,-0.0075,-0.0075,-0.0075,-0.0075,-0.0075,-0.0075,-0.0075,-0.0075,-0.0075,-0.0075,-0.0075,-0.0075,-0.0075,-0.0075,-0.0075,-0.0075,-0.0075,-0.0075,-0.0075,-0.0075,-0.0075,-0.0075,-0.0075,-0.0075,-0.0075,-0.0075,-0.0075,-0.0075,-0.0075,-0.0075,-0.0075,-0.0075,-0.0075,-0.0075,-0.0075,-0.0075,-0.0075,-0.0075,-0.0075,-0.0075,-0.0075,-0.005,-0.00375,-0.0025,-0.0025,-0.00125,-0.00125,0.00125,0.0025,0.00375,0.00625,0.00875,0.0175,0.04375,0.08375,0.09625,0.1475,0.16125,0.1725,0.18625,0.19125,0.19875,0.2125,0.21625,0.22375,0.23375,0.24625,0.25375,0.27125,0.28375,0.30625,0.31375,0.32,0.33125,0.335,0.33875,0.3425,0.345]","[-0.00375,-0.00375,-0.00375,-0.00375,-0.00375,-0.00375,-0.00375,-0.00375,-0.00375,-0.00375,-0.00375,-0.00375,-0.00375,-0.00375,-0.00375,-0.00375,-0.00375,-0.00375,-0.00375,-0.00375,-0.00375,-0.00375,-0.00375,-0.00375,-0.00375,-0.00375,-0.00375,-0.00375,-0.00375,-0.00375,-0.00375,-0.00375,-0.00375,-0.00375,-0.00375,-0.00375,-0.00375,-0.00375,-0.00375,-0.00375,-0.00375,-0.00375,-0.00375,-0.00375,-0.00375,-0.00125,0.00125,0.00375,0.005,0.005,0.005,0.005,0.00625,0.00625,0.0075,0.00875,0.01,0.0125,0.0225,0.04875,0.0925,0.105,0.16375,0.18125,0.1975,0.2225,0.2325,0.2475,0.26625,0.27125,0.27625,0.2825,0.2875,0.29,0.2975,0.3025,0.31375,0.3175,0.32125,0.32875,0.33125,0.33375,0.33625,0.33875]","[0,0.016999999999995907,0.04999999999998295,0.0660000000000025,0.10099999999999909,0.11699999999999022,0.15099999999998204,0.1670000000000016,0.1839999999999975,0.2009999999999934,0.2330000000000041,0.25199999999998113,0.28299999999998704,0.29999999999998295,0.3189999999999884,0.3509999999999991,0.3669999999999902,0.3849999999999909,0.4159999999999968,0.4329999999999927,0.4519999999999982,0.48399999999998045,0.5010000000000048,0.5169999999999959,0.549999999999983,0.5669999999999789,0.5829999999999984,0.6169999999999902,0.6329999999999814,0.6499999999999773,0.6670000000000016,0.6839999999999975,0.7159999999999798,0.7339999999999804,0.7510000000000048,0.7669999999999959,0.799999999999983,0.8179999999999836,0.8499999999999943,0.8669999999999902,0.8859999999999957,0.9170000000000016,0.9339999999999975,0.9519999999999982,0.9830000000000041,1.0010000000000048,1.0180000000000007,1.049999999999983,1.070999999999998,1.100999999999999,1.1169999999999902,1.150999999999982,1.167999999999978,1.2009999999999934,1.2179999999999893,1.2379999999999995,1.2699999999999818,1.289999999999992,1.3169999999999789,1.3359999999999843,1.3669999999999902,1.3839999999999861,1.417999999999978,1.4339999999999975,1.453000000000003,1.4839999999999804,1.5010000000000048,1.5209999999999866,1.5679999999999836,1.5840000000000032,1.6029999999999802,1.6339999999999861,1.667999999999978,1.6859999999999786,1.7169999999999845,1.7369999999999948,1.766999999999996,1.7839999999999918,1.804000000000002,1.8340000000000032,1.850999999999999,1.870999999999981,1.900999999999982,1.9359999999999786]",0.345,0.33875,1,0,0,1.936,target,,,,,,1,13,anxiety,future,I would not be able to contain my fears ,0.25,0.25,-0.25,-0.25,R_3mmcSVIVecAwJCE,A,2021-04-06_17h20.16.368,experiment,2020.2.6,MacIntel,60,,,-0.0075,-0.00375,1,0,0,fixation,-0.0075,-0.00375,1,0,0,text_sentence,0,30,30,12,1
,,,,,,,,,,,,,,0,"[0.26,-0.24]","[-0.26,0.24]","[-0.01,-0.01,-0.01,-0.01,-0.01,-0.01,-0.01,-0.01,-0.01,-0.01,-0.01,-0.01,-0.01,-0.01,-0.01,-0.01,-0.01,-0.01,-0.01,-0.01,-0.01,-0.01,-0.01,-0.01,-0.01,-0.01,-0.01,-0.01,-0.01,-0.01,-0.01,-0.01,-0.01,-0.01,-0.01,-0.0125,-0.0375,-0.08375,-0.12625,-0.19875,-0.21,-0.22625,-0.22875,-0.23125,-0.23125,-0.2325,-0.23375,-0.23375,-0.235,-0.23625,-0.2375,-0.2425,-0.24375,-0.24625,-0.24875,-0.25,-0.25125]","[-0.00125,-0.00125,-0.00125,-0.00125,-0.00125,-0.00125,-0.00125,-0.00125,-0.00125,-0.00125,-0.00125,-0.00125,-0.00125,-0.00125,-0.00125,-0.00125,-0.00125,-0.00125,-0.00125,-0.00125,-0.00125,-0.00125,-0.00125,-0.00125,-0.00125,-0.00125,-0.00125,-0.00125,-0.00125,-0.00125,-0.00125,-0.00125,-0.00125,-0.00125,-0.00125,0,0.015,0.04375,0.0725,0.1375,0.1525,0.17625,0.18125,0.1875,0.18875,0.18875,0.19,0.19375,0.19625,0.2,0.2025,0.2075,0.21,0.2125,0.21625,0.2175,0.22125]","[0,0.015999999999991132,0.03299999999998704,0.05099999999998772,0.08299999999999841,0.09999999999999432,0.117999999999995,0.15000000000000568,0.1670000000000016,0.18299999999999272,0.21599999999997976,0.2330000000000041,0.2510000000000048,0.28199999999998226,0.2990000000000066,0.31699999999997885,0.34899999999998954,0.3669999999999902,0.3859999999999957,0.4159999999999968,0.4329999999999927,0.4509999999999934,0.4830000000000041,0.5,0.5149999999999864,0.549999999999983,0.5660000000000025,0.5849999999999795,0.6159999999999854,0.632000000000005,0.6500000000000057,0.6829999999999927,0.7009999999999934,0.7169999999999845,0.75,0.7659999999999911,0.7870000000000061,0.8169999999999789,0.8359999999999843,0.8669999999999902,0.8849999999999909,0.9170000000000016,0.9350000000000023,0.9679999999999893,0.98599999999999,1.016999999999996,1.0360000000000014,1.0669999999999789,1.0849999999999795,1.117999999999995,1.1339999999999861,1.1670000000000016,1.1829999999999927,1.203000000000003,1.233000000000004,1.2519999999999811,1.282999999999987]",-0.25125,0.22125,1,0,0,1.283,distractor,,,,,,1,25,depression,future,The experience will be draining ,0.25,-0.25,-0.25,0.25,R_3mmcSVIVecAwJCE,A,2021-04-06_17h20.16.368,experiment,2020.2.6,MacIntel,60,,,-0.01,-0.00125,1,0,0,fixation,-0.01,-0.00125,1,0,0,text_sentence,0,31,31,24,1
